{
  "resourceType": "Bundle",
  "id": "Virginia-Elliott-Davenport-3608-Encounter-3931",
  "type": "transaction",
  "entry": [
    {
      "fullUrl": "http://localhost:8080/cqf-ruler/R4/Encounter/Encounter-3931",
      "resource": {
        "resourceType": "Encounter",
        "id": "Encounter-3931",
        "text": {
          "status": "generated",
          "div": "<div xmlns=\"http://www.w3.org/1999/xhtml\">This is a simple example with only plain text</div>"
        },
        "extension": [
          {
            "url": "http://mihin.org/extension/copyright",
            "valueString": "Copyright 2014-2019 Michigan Health Information Network Shared Services. Licensed under the Apache License, Version 2.0 (the 'License'); you may not use this file except in compliance with the License. You may obtain a copy of the License at  http://www.apache.org/licenses/LICENSE-2.0.  Unless required by applicable law or agreed to in writing, software distributed under the License is distributed on an 'AS IS' BASIS, WITHOUT WARRANTIES OR CONDITIONS OF ANY KIND, either express or implied. See the License for the specific language governing permissions and limitations under the License."
          }
        ],
        "identifier": [
          {
            "use": "official",
            "value": "23ec9b87-b200-4f7e-8ffa-4705234b237c"
          }
        ],
        "status": "finished",
        "class": {
          "system": "http://hl7.org/fhir/encounter-class",
          "code": "outpatient",
          "display": "Outpatient"
        },
        "type": [
          {
            "coding": [
              {
                "system": "http://snomed.info/sct",
                "code": "428191000124101",
                "display": "Documentation of current medications"
              }
            ]
          }
        ],
        "subject": {
          "reference": "Patient/Patient-3608",
          "display": "Virginia Elliott Davenport"
        },
        "participant": [
          {
            "type": [
              {
                "coding": [
                  {
                    "system": "http://hl7.org/fhir/v3/ParticipationType",
                    "code": "ATND",
                    "display": "attender"
                  }
                ]
              }
            ],
            "period": {
              "start": "2021-03-08T12:40:00-05:00",
              "end": "2021-03-08T13:00:00-05:00"
            },
            "individual": {
              "reference": "Practitioner/Practitioner-2108",
              "display": "Marian Lorraine McCall DO"
            }
          }
        ],
        "period": {
          "start": "2021-03-08T12:40:00-05:00",
          "end": "2021-03-08T13:00:00-05:00"
        },
        "location": [
          {
            "location": {
              "reference": "Location/Location-438",
              "display": "Lansing Westside Urgent Care Center"
            }
          }
        ],
        "serviceProvider": {
          "display": "Lansing Westside Urgent Care Center"
        }
      },
      "request": {
        "method": "PUT",
        "url": "http://localhost:8080/cqf-ruler/R4/Encounter/Encounter-3931"
      }
    },
    {
      "fullUrl": "http://localhost:8080/cqf-ruler/R4/Task/Task-82474",
      "resource": {
        "resourceType": "Task",
        "id": "Task-82474",
        "text": {
          "status": "generated",
          "div": "<div xmlns=\"http://www.w3.org/1999/xhtml\">This is a simple example with only plain text</div>"
        },
        "extension": [
          {
            "url": "http://mihin.org/extension/copyright",
            "valueString": "Copyright 2014-2019 Michigan Health Information Network Shared Services. Licensed under the Apache License, Version 2.0 (the 'License'); you may not use this file except in compliance with the License. You may obtain a copy of the License at  http://www.apache.org/licenses/LICENSE-2.0.  Unless required by applicable law or agreed to in writing, software distributed under the License is distributed on an 'AS IS' BASIS, WITHOUT WARRANTIES OR CONDITIONS OF ANY KIND, either express or implied. See the License for the specific language governing permissions and limitations under the License."
          }
        ],
        "status": "accepted",
        "intent": "original-order",
        "code": {
          "coding": [
            {
              "system": "http://snomed.info/sct",
              "code": "430193006",
              "display": "Medication Reconciliation (procedure)"
            }
          ]
        },
        "description": "Care_Plan_Start Task 1",
        "for": {
          "reference": "Patient/Patient-3608",
          "display": "Virginia Elliott Davenport"
        },
        "encounter": {
          "reference": "Encounter/Encounter-3931",
          "display": "Outpatient_Encounter"
        },
        "executionPeriod": {
          "start": "2021-03-09T00:00:00-05:00",
          "end": "2021-03-09T00:00:00-05:00"
        },
        "authoredOn": "2021-03-09T00:00:00-05:00",
        "requester": {
          "reference": "Practitioner/Practitioner-2108",
          "display": "Marian Lorraine McCall DO"
        }
      },
      "request": {
        "method": "PUT",
        "url": "http://localhost:8080/cqf-ruler/R4/Task/Task-82474"
      }
    },
    {
      "fullUrl": "http://localhost:8080/cqf-ruler/R4/CarePlan/CarePlan-82473",
      "resource": {
        "resourceType": "CarePlan",
        "id": "CarePlan-82473",
        "text": {
          "status": "generated",
          "div": "<div xmlns=\"http://www.w3.org/1999/xhtml\">This is a simple example with only plain text</div>"
        },
        "extension": [
          {
            "url": "http://mihin.org/extension/copyright",
            "valueString": "Copyright 2014-2019 Michigan Health Information Network Shared Services. Licensed under the Apache License, Version 2.0 (the 'License'); you may not use this file except in compliance with the License. You may obtain a copy of the License at  http://www.apache.org/licenses/LICENSE-2.0.  Unless required by applicable law or agreed to in writing, software distributed under the License is distributed on an 'AS IS' BASIS, WITHOUT WARRANTIES OR CONDITIONS OF ANY KIND, either express or implied. See the License for the specific language governing permissions and limitations under the License."
          }
        ],
        "identifier": [
          {
            "use": "official",
            "system": "http://mihin.org/fhir/sid/elementId",
            "value": "fa2cfeae-e904-4162-8645-5cb022d5331f"
          }
        ],
        "status": "active",
        "category": [
          {
            "coding": [
              {
                "system": "http://snomed.info/sct",
                "code": "430193006",
                "display": "Medication Reconciliation (procedure)"
              }
            ]
          }
        ],
        "subject": {
          "reference": "Patient/Patient-3608",
          "display": "Virginia Elliott Davenport"
        },
        "encounter": {
          "reference": "Encounter/Encounter-3931",
          "display": "Outpatient_Encounter"
        },
        "period": {
          "start": "2021-03-08T12:40:00-05:00",
          "end": "2021-03-08T12:40:00-05:00"
        },
        "author": {
          "reference": "Practitioner/Practitioner-2108",
          "display": "Marian Lorraine McCall DO"
        },
        "activity": [
          {
            "reference": {
              "reference": "Task/Task-82474",
              "display": "Care_Plan_Start Task 1"
            }
          }
        ]
      },
      "request": {
        "method": "PUT",
        "url": "http://localhost:8080/cqf-ruler/R4/CarePlan/CarePlan-82473"
      }
    }
  ]
}