{
  "resourceType": "Bundle",
  "id": "Curtis-Dwayne-Payne-3653-Encounter-4209",
  "type": "transaction",
  "entry": [
    {
      "fullUrl": "http://localhost:8080/cqf-ruler/R4/Encounter/Encounter-4209",
      "resource": {
        "resourceType": "Encounter",
        "id": "Encounter-4209",
        "text": {
          "status": "generated",
          "div": "<div xmlns=\"http://www.w3.org/1999/xhtml\">This is a simple example with only plain text</div>"
        },
        "extension": [
          {
            "url": "http://mihin.org/extension/copyright",
            "valueString": "Copyright 2014-2019 Michigan Health Information Network Shared Services. Licensed under the Apache License, Version 2.0 (the 'License'); you may not use this file except in compliance with the License. You may obtain a copy of the License at  http://www.apache.org/licenses/LICENSE-2.0.  Unless required by applicable law or agreed to in writing, software distributed under the License is distributed on an 'AS IS' BASIS, WITHOUT WARRANTIES OR CONDITIONS OF ANY KIND, either express or implied. See the License for the specific language governing permissions and limitations under the License."
          }
        ],
        "identifier": [
          {
            "use": "official",
            "value": "018e26ff-34a2-4d7b-8cd9-e7743a23762d"
          }
        ],
        "status": "finished",
        "class": {
          "system": "http://hl7.org/fhir/encounter-class",
          "code": "outpatient",
          "display": "Outpatient"
        },
        "type": [
          {
            "coding": [
              {
                "system": "http://snomed.info/sct",
                "code": "428191000124101",
                "display": "Documentation of current medications"
              }
            ]
          }
        ],
        "subject": {
          "reference": "Patient/Patient-3653",
          "display": "Curtis Dwayne Payne"
        },
        "participant": [
          {
            "type": [
              {
                "coding": [
                  {
                    "system": "http://hl7.org/fhir/v3/ParticipationType",
                    "code": "ATND",
                    "display": "attender"
                  }
                ]
              }
            ],
            "period": {
              "start": "2021-05-07T13:20:00-04:00",
              "end": "2021-05-07T13:40:00-04:00"
            },
            "individual": {
              "reference": "Practitioner/Practitioner-2864",
              "display": "Alma Sampson Payne MD"
            }
          }
        ],
        "period": {
          "start": "2021-05-07T13:20:00-04:00",
          "end": "2021-05-07T13:40:00-04:00"
        },
        "location": [
          {
            "location": {
              "reference": "Location/Location-437",
              "display": "Lansing Northside Urgent Care Center"
            }
          }
        ],
        "serviceProvider": {
          "display": "Lansing Northside Urgent Care Center"
        }
      },
      "request": {
        "method": "PUT",
        "url": "http://localhost:8080/cqf-ruler/R4/Encounter/Encounter-4209"
      }
    },
    {
      "fullUrl": "http://localhost:8080/cqf-ruler/R4/Task/Task-87955",
      "resource": {
        "resourceType": "Task",
        "id": "Task-87955",
        "text": {
          "status": "generated",
          "div": "<div xmlns=\"http://www.w3.org/1999/xhtml\">This is a simple example with only plain text</div>"
        },
        "extension": [
          {
            "url": "http://mihin.org/extension/copyright",
            "valueString": "Copyright 2014-2019 Michigan Health Information Network Shared Services. Licensed under the Apache License, Version 2.0 (the 'License'); you may not use this file except in compliance with the License. You may obtain a copy of the License at  http://www.apache.org/licenses/LICENSE-2.0.  Unless required by applicable law or agreed to in writing, software distributed under the License is distributed on an 'AS IS' BASIS, WITHOUT WARRANTIES OR CONDITIONS OF ANY KIND, either express or implied. See the License for the specific language governing permissions and limitations under the License."
          }
        ],
        "status": "accepted",
        "intent": "original-order",
        "code": {
          "coding": [
            {
              "system": "http://snomed.info/sct",
              "code": "430193006",
              "display": "Medication Reconciliation (procedure)"
            }
          ]
        },
        "description": "Care_Plan_Start Task 1",
        "for": {
          "reference": "Patient/Patient-3653",
          "display": "Curtis Dwayne Payne"
        },
        "encounter": {
          "reference": "Encounter/Encounter-4209",
          "display": "Outpatient_Encounter"
        },
        "executionPeriod": {
          "start": "2021-05-07T00:00:00-04:00",
          "end": "2021-05-07T00:00:00-04:00"
        },
        "authoredOn": "2021-05-07T00:00:00-04:00",
        "requester": {
          "reference": "Practitioner/Practitioner-2864",
          "display": "Alma Sampson Payne MD"
        }
      },
      "request": {
        "method": "PUT",
        "url": "http://localhost:8080/cqf-ruler/R4/Task/Task-87955"
      }
    },
    {
      "fullUrl": "http://localhost:8080/cqf-ruler/R4/CarePlan/CarePlan-87954",
      "resource": {
        "resourceType": "CarePlan",
        "id": "CarePlan-87954",
        "text": {
          "status": "generated",
          "div": "<div xmlns=\"http://www.w3.org/1999/xhtml\">This is a simple example with only plain text</div>"
        },
        "extension": [
          {
            "url": "http://mihin.org/extension/copyright",
            "valueString": "Copyright 2014-2019 Michigan Health Information Network Shared Services. Licensed under the Apache License, Version 2.0 (the 'License'); you may not use this file except in compliance with the License. You may obtain a copy of the License at  http://www.apache.org/licenses/LICENSE-2.0.  Unless required by applicable law or agreed to in writing, software distributed under the License is distributed on an 'AS IS' BASIS, WITHOUT WARRANTIES OR CONDITIONS OF ANY KIND, either express or implied. See the License for the specific language governing permissions and limitations under the License."
          }
        ],
        "identifier": [
          {
            "use": "official",
            "system": "http://mihin.org/fhir/sid/elementId",
            "value": "ef3f95cd-aebd-4ee8-a341-3eb823375977"
          }
        ],
        "status": "active",
        "category": [
          {
            "coding": [
              {
                "system": "http://snomed.info/sct",
                "code": "430193006",
                "display": "Medication Reconciliation (procedure)"
              }
            ]
          }
        ],
        "subject": {
          "reference": "Patient/Patient-3653",
          "display": "Curtis Dwayne Payne"
        },
        "encounter": {
          "reference": "Encounter/Encounter-4209",
          "display": "Outpatient_Encounter"
        },
        "period": {
          "start": "2021-05-07T13:20:00-04:00",
          "end": "2021-05-07T13:20:00-04:00"
        },
        "author": {
          "reference": "Practitioner/Practitioner-2864",
          "display": "Alma Sampson Payne MD"
        },
        "activity": [
          {
            "reference": {
              "reference": "Task/Task-87955",
              "display": "Care_Plan_Start Task 1"
            }
          }
        ]
      },
      "request": {
        "method": "PUT",
        "url": "http://localhost:8080/cqf-ruler/R4/CarePlan/CarePlan-87954"
      }
    }
  ]
}