{
  "resourceType": "Bundle",
  "id": "MRPFHIR-bundle",
  "type": "transaction",
  "entry": [
    {
      "resource": {
        "resourceType": "ValueSet",
        "id": "2.16.840.1.113883.3.464.1003.101.12.1014",
        "url": "http://cts.nlm.nih.gov/fhir/ValueSet/2.16.840.1.113883.3.464.1003.101.12.1014",
        "title": "Care Services in Long-Term Residential Facility",
        "status": "active",
        "publisher": "National Committee for Quality Assurance",
        "compose": {
          "include": [
            {
              "system": "http://snomed.info/sct",
              "version": "2019-03",
              "concept": [
                {
                  "code": "209099002",
                  "display": "History and physical examination with management of domiciliary or rest home patient (procedure)"
                },
                {
                  "code": "210098006",
                  "display": "Domiciliary or rest home patient evaluation and management (procedure)"
                }
              ]
            },
            {
              "system": "http://www.ama-assn.org/go/cpt",
              "version": "2019",
              "concept": [
                {
                  "code": "99324",
                  "display": "Domiciliary or rest home visit for the evaluation and management of a new patient, which requires these 3 key components: A problem focused history; A problem focused examination; and Straightforward medical decision making. Counseling and/or coordination of care with other physicians, other qualified health care professionals, or agencies are provided consistent with the nature of the problem(s) and the patient's and/or family's needs. Usually, the presenting problem(s) are of low severity. Typically, 20 minutes are spent with the patient and/or family or caregiver."
                },
                {
                  "code": "99325",
                  "display": "Domiciliary or rest home visit for the evaluation and management of a new patient, which requires these 3 key components: An expanded problem focused history; An expanded problem focused examination; and Medical decision making of low complexity. Counseling and/or coordination of care with other physicians, other qualified health care professionals, or agencies are provided consistent with the nature of the problem(s) and the patient's and/or family's needs. Usually, the presenting problem(s) are of moderate severity. Typically, 30 minutes are spent with the patient and/or family or caregiver."
                },
                {
                  "code": "99326",
                  "display": "Domiciliary or rest home visit for the evaluation and management of a new patient, which requires these 3 key components: A detailed history; A detailed examination; and Medical decision making of moderate complexity. Counseling and/or coordination of care with other physicians, other qualified health care professionals, or agencies are provided consistent with the nature of the problem(s) and the patient's and/or family's needs. Usually, the presenting problem(s) are of moderate to high severity. Typically, 45 minutes are spent with the patient and/or family or caregiver."
                },
                {
                  "code": "99327",
                  "display": "Domiciliary or rest home visit for the evaluation and management of a new patient, which requires these 3 key components: A comprehensive history; A comprehensive examination; and Medical decision making of moderate complexity. Counseling and/or coordination of care with other physicians, other qualified health care professionals, or agencies are provided consistent with the nature of the problem(s) and the patient's and/or family's needs. Usually, the presenting problem(s) are of high severity. Typically, 60 minutes are spent with the patient and/or family or caregiver."
                },
                {
                  "code": "99328",
                  "display": "Domiciliary or rest home visit for the evaluation and management of a new patient, which requires these 3 key components: A comprehensive history; A comprehensive examination; and Medical decision making of high complexity. Counseling and/or coordination of care with other physicians, other qualified health care professionals, or agencies are provided consistent with the nature of the problem(s) and the patient's and/or family's needs. Usually, the patient is unstable or has developed a significant new problem requiring immediate physician attention. Typically, 75 minutes are spent with the patient and/or family or caregiver."
                },
                {
                  "code": "99334",
                  "display": "Domiciliary or rest home visit for the evaluation and management of an established patient, which requires at least 2 of these 3 key components: A problem focused interval history; A problem focused examination; Straightforward medical decision making. Counseling and/or coordination of care with other physicians, other qualified health care professionals, or agencies are provided consistent with the nature of the problem(s) and the patient's and/or family's needs. Usually, the presenting problem(s) are self-limited or minor. Typically, 15 minutes are spent with the patient and/or family or caregiver."
                },
                {
                  "code": "99335",
                  "display": "Domiciliary or rest home visit for the evaluation and management of an established patient, which requires at least 2 of these 3 key components: An expanded problem focused interval history; An expanded problem focused examination; Medical decision making of low complexity. Counseling and/or coordination of care with other physicians, other qualified health care professionals, or agencies are provided consistent with the nature of the problem(s) and the patient's and/or family's needs. Usually, the presenting problem(s) are of low to moderate severity. Typically, 25 minutes are spent with the patient and/or family or caregiver."
                },
                {
                  "code": "99336",
                  "display": "Domiciliary or rest home visit for the evaluation and management of an established patient, which requires at least 2 of these 3 key components: A detailed interval history; A detailed examination; Medical decision making of moderate complexity. Counseling and/or coordination of care with other physicians, other qualified health care professionals, or agencies are provided consistent with the nature of the problem(s) and the patient's and/or family's needs. Usually, the presenting problem(s) are of moderate to high severity. Typically, 40 minutes are spent with the patient and/or family or caregiver."
                },
                {
                  "code": "99337",
                  "display": "Domiciliary or rest home visit for the evaluation and management of an established patient, which requires at least 2 of these 3 key components: A comprehensive interval history; A comprehensive examination; Medical decision making of moderate to high complexity. Counseling and/or coordination of care with other physicians, other qualified health care professionals, or agencies are provided consistent with the nature of the problem(s) and the patient's and/or family's needs. Usually, the presenting problem(s) are of moderate to high severity. The patient may be unstable or may have developed a significant new problem requiring immediate physician attention. Typically, 60 minutes are spent with the patient and/or family or caregiver."
                }
              ]
            }
          ]
        }
      },
      "request": {
        "method": "PUT",
        "url": "ValueSet/2.16.840.1.113883.3.464.1003.101.12.1014"
      }
    },
    {
      "resource": {
        "resourceType": "Library",
        "id": "library-FHIRHelpers",
        "text": {
          "status": "generated",
          "div": "<div xmlns=\"http://www.w3.org/1999/xhtml\"><table class=\"grid dict\"><tr><th scope=\"row\"><b>Id: </b></th><td style=\"padding-left: 25px; padding-right: 25px;\">library-FHIRHelpers</td></tr><tr><th scope=\"row\"><b>Type: </b></th><td style=\"padding-right: 25px;\"> logic-library </td></tr><tr><th scope=\"row\"><b>Version: </b></th><td style=\"padding-left: 25px; padding-right: 25px;\">4.0.0</td></tr><tr><th scope=\"row\"><b>Status: </b></th><td style=\"padding-left: 25px; padding-right: 25px;\">active</td></tr><tr style=\"vertical-align: top;\"><th scope=\"row\"><b>Content: </b></th><td style=\"padding-left: 25px; padding-right: 25px;\"><b>type: </b><span>text/cql</span></td></tr><tr><td colspan=\"2\" style=\"padding-left: 25px; padding-right: 25px;\"><pre><code class=\"language-cql\">library FHIRHelpers version '4.0.0'\n\nusing FHIR version '4.0.0'\n\ndefine function ToInterval(period FHIR.Period):\n    if period is null then\n        null\n    else\n        Interval[period.&quot;start&quot;.value, period.&quot;end&quot;.value]\n\ndefine function ToQuantity(quantity FHIR.Quantity):\n    if quantity is null then\n        null\n    else\n        System.Quantity { value: quantity.value.value, unit: quantity.unit.value }\n\ndefine function ToInterval(range FHIR.Range):\n    if range is null then\n        null\n    else\n        Interval[ToQuantity(range.low), ToQuantity(range.high)]\n\ndefine function ToCode(coding FHIR.Coding):\n    if coding is null then\n        null\n    else\n        System.Code {\n          code: coding.code.value,\n          system: coding.system.value,\n          version: coding.version.value,\n          display: coding.display.value\n        }\n\ndefine function ToConcept(concept FHIR.CodeableConcept):\n    if concept is null then\n        null\n    else\n        System.Concept {\n            codes: concept.coding C return ToCode(C),\n            display: concept.text.value\n        }\n\ndefine function ToString(value FHIR.uuid): value.value\ndefine function ToString(value FHIR.TestScriptRequestMethodCode): value.value\ndefine function ToString(value FHIR.SortDirection): value.value\ndefine function ToString(value FHIR.BiologicallyDerivedProductStatus): value.value\ndefine function ToString(value FHIR.UnitsOfTime): value.value\ndefine function ToString(value FHIR.AddressType): value.value\ndefine function ToString(value FHIR.AllergyIntoleranceCategory): value.value\ndefine function ToString(value FHIR.IssueSeverity): value.value\ndefine function ToString(value FHIR.CareTeamStatus): value.value\ndefine function ToString(value FHIR.EncounterStatus): value.value\ndefine function ToString(value FHIR.StructureDefinitionKind): value.value\ndefine function ToString(value FHIR.PublicationStatus): value.value\ndefine function ToString(value FHIR.FHIRVersion): value.value\ndefine function ToString(value FHIR.CarePlanActivityKind): value.value\ndefine function ToString(value FHIR.StructureMapSourceListMode): value.value\ndefine function ToString(value FHIR.RequestStatus): value.value\ndefine function ToString(value FHIR.strandType): value.value\ndefine function ToString(value FHIR.QuestionnaireResponseStatus): value.value\ndefine function ToString(value FHIR.SearchComparator): value.value\ndefine function ToString(value FHIR.ChargeItemStatus): value.value\ndefine function ToString(value FHIR.ActionParticipantType): value.value\ndefine function ToString(value FHIR.AllergyIntoleranceType): value.value\ndefine function ToString(value FHIR.CarePlanActivityStatus): value.value\ndefine function ToString(value FHIR.InvoiceStatus): value.value\ndefine function ToString(value FHIR.ClaimProcessingCodes): value.value\ndefine function ToString(value FHIR.RequestResourceType): value.value\ndefine function ToString(value FHIR.ParticipationStatus): value.value\ndefine function ToString(value FHIR.DeviceNameType): value.value\ndefine function ToString(value FHIR.DocumentMode): value.value\ndefine function ToString(value FHIR.AssertionOperatorType): value.value\ndefine function ToString(value FHIR.DaysOfWeek): value.value\ndefine function ToString(value FHIR.IssueType): value.value\ndefine function ToString(value FHIR.canonical): value.value\ndefine function ToString(value FHIR.StructureMapContextType): value.value\ndefine function ToString(value FHIR.FamilyHistoryStatus): value.value\ndefine function ToString(value FHIR.status): value.value\ndefine function ToString(value FHIR.ExtensionContextType): value.value\ndefine function ToString(value FHIR.AssertionResponseTypes): value.value\ndefine function ToString(value FHIR.RequestIntent): value.value\ndefine function ToString(value FHIR.string): value.value\ndefine function ToString(value FHIR.ActionRequiredBehavior): value.value\ndefine function ToString(value FHIR.GraphCompartmentUse): value.value\ndefine function ToString(value FHIR.orientationType): value.value\ndefine function ToString(value FHIR.AccountStatus): value.value\ndefine function ToString(value FHIR.IdentifierUse): value.value\ndefine function ToString(value FHIR.StructureMapTargetListMode): value.value\ndefine function ToString(value FHIR.ExposureState): value.value\ndefine function ToString(value FHIR.TestReportParticipantType): value.value\ndefine function ToString(value FHIR.BindingStrength): value.value\ndefine function ToString(value FHIR.RequestPriority): value.value\ndefine function ToString(value FHIR.ParticipantRequired): value.value\ndefine function ToString(value FHIR.XPathUsageType): value.value\ndefine function ToString(value FHIR.id): value.value\ndefine function ToString(value FHIR.FilterOperator): value.value\ndefine function ToString(value FHIR.NamingSystemType): value.value\ndefine function ToString(value FHIR.ContractResourceStatusCodes): value.value\ndefine function ToString(value FHIR.ResearchSubjectStatus): value.value\ndefine function ToString(value FHIR.StructureMapTransform): value.value\ndefine function ToString(value FHIR.ResponseType): value.value\ndefine function ToDecimal(value FHIR.decimal): value.value\ndefine function ToString(value FHIR.AggregationMode): value.value\ndefine function ToString(value FHIR.sequenceType): value.value\ndefine function ToString(value FHIR.SystemRestfulInteraction): value.value\ndefine function ToString(value FHIR.AdverseEventActuality): value.value\ndefine function ToString(value FHIR.SubscriptionChannelType): value.value\ndefine function ToString(value FHIR.AssertionDirectionType): value.value\ndefine function ToString(value FHIR.CarePlanIntent): value.value\ndefine function ToString(value FHIR.AllergyIntoleranceCriticality): value.value\ndefine function ToString(value FHIR.PropertyRepresentation): value.value\ndefine function ToString(value FHIR.TriggerType): value.value\ndefine function ToString(value FHIR.CompositionStatus): value.value\ndefine function ToString(value FHIR.AppointmentStatus): value.value\ndefine function ToString(value FHIR.MessageSignificanceCategory): value.value\ndefine function ToString(value FHIR.ListMode): value.value\ndefine function ToString(value FHIR.ResearchElementType): value.value\ndefine function ToString(value FHIR.ObservationStatus): value.value\ndefine function ToString(value FHIR.ResourceType): value.value\ndefine function ToBoolean(value FHIR.boolean): value.value\ndefine function ToString(value FHIR.StructureMapGroupTypeMode): value.value\ndefine function ToString(value FHIR.SupplyRequestStatus): value.value\ndefine function ToString(value FHIR.EncounterLocationStatus): value.value\ndefine function ToString(value FHIR.ConditionalDeleteStatus): value.value\ndefine function ToString(value FHIR.url): value.value\ndefine function ToString(value FHIR.uri): value.value\ndefine function ToString(value FHIR.Use): value.value\ndefine function ToString(value FHIR.MedicationRequestStatus): value.value\ndefine function ToString(value FHIR.IdentityAssuranceLevel): value.value\ndefine function ToString(value FHIR.DeviceMetricColor): value.value\ndefine function ToTime(value FHIR.time): value.value\ndefine function ToString(value FHIR.ConditionalReadStatus): value.value\ndefine function ToString(value FHIR.AllergyIntoleranceSeverity): value.value\ndefine function ToString(value FHIR.FinancialResourceStatusCodes): value.value\ndefine function ToString(value FHIR.OperationKind): value.value\ndefine function ToString(value FHIR.SubscriptionStatus): value.value\ndefine function ToString(value FHIR.GoalLifecycleStatus): value.value\ndefine function ToString(value FHIR.ObservationDataType): value.value\ndefine function ToString(value FHIR.DocumentReferenceStatus): value.value\ndefine function ToString(value FHIR.repositoryType): value.value\ndefine function ToString(value FHIR.LocationStatus): value.value\ndefine function ToString(value FHIR.NoteType): value.value\ndefine function ToString(value FHIR.TestReportStatus): value.value\ndefine function ToString(value FHIR.CodeSystemContentMode): value.value\ndefine function ToString(value FHIR.FHIRDeviceStatus): value.value\ndefine function ToString(value FHIR.ContactPointSystem): value.value\ndefine function ToString(value FHIR.SlotStatus): value.value\ndefine function ToString(value FHIR.PropertyType): value.value\ndefine function ToString(value FHIR.TypeDerivationRule): value.value\ndefine function ToString(value FHIR.GuidanceResponseStatus): value.value\ndefine function ToString(value FHIR.RelatedArtifactType): value.value\ndefine function ToString(value FHIR.oid): value.value\ndefine function ToString(value FHIR.CompartmentType): value.value\ndefine function ToString(value FHIR.MedicationRequestIntent): value.value\ndefine function ToString(value FHIR.InvoicePriceComponentType): value.value\ndefine function ToString(value FHIR.DeviceMetricCalibrationState): value.value\ndefine function ToString(value FHIR.GroupType): value.value\ndefine function ToString(value FHIR.EnableWhenBehavior): value.value\ndefine function ToString(value FHIR.TaskIntent): value.value\ndefine function ToString(value FHIR.ImmunizationEvaluationStatusCodes): value.value\ndefine function ToString(value FHIR.ExampleScenarioActorType): value.value\ndefine function ToString(value FHIR.ProvenanceEntityRole): value.value\ndefine function ToString(value FHIR.SpecimenStatus): value.value\ndefine function ToString(value FHIR.RestfulCapabilityMode): value.value\ndefine function ToString(value FHIR.DetectedIssueSeverity): value.value\ndefine function ToString(value FHIR.VisionEyes): value.value\ndefine function ToString(value FHIR.ConsentDataMeaning): value.value\ndefine function ToString(value FHIR.messageheaderResponseRequest): value.value\ndefine function ToString(value FHIR.GuidePageGeneration): value.value\ndefine function ToString(value FHIR.DocumentRelationshipType): value.value\ndefine function ToString(value FHIR.VariableType): value.value\ndefine function ToString(value FHIR.TestReportResult): value.value\ndefine function ToString(value FHIR.ConceptMapGroupUnmappedMode): value.value\ndefine function ToDateTime(value FHIR.instant): value.value\ndefine function ToDateTime(value FHIR.dateTime): value.value\ndefine function ToDate(value FHIR.date): value.value\ndefine function ToInteger(value FHIR.positiveInt): value.value\ndefine function ToString(value FHIR.ClinicalImpressionStatus): value.value\ndefine function ToString(value FHIR.EligibilityResponsePurpose): value.value\ndefine function ToString(value FHIR.NarrativeStatus): value.value\ndefine function ToString(value FHIR.ImagingStudyStatus): value.value\ndefine function ToString(value FHIR.EndpointStatus): value.value\ndefine function ToString(value FHIR.BiologicallyDerivedProductCategory): value.value\ndefine function ToString(value FHIR.ResourceVersionPolicy): value.value\ndefine function ToString(value FHIR.ActionCardinalityBehavior): value.value\ndefine function ToString(value FHIR.GroupMeasure): value.value\ndefine function ToString(value FHIR.NamingSystemIdentifierType): value.value\ndefine function ToString(value FHIR.ImmunizationStatusCodes): value.value\ndefine function ToString(value FHIR.MedicationStatusCodes): value.value\ndefine function ToString(value FHIR.DiscriminatorType): value.value\ndefine function ToString(value FHIR.StructureMapInputMode): value.value\ndefine function ToString(value FHIR.LinkageType): value.value\ndefine function ToString(value FHIR.ReferenceHandlingPolicy): value.value\ndefine function ToString(value FHIR.ResearchStudyStatus): value.value\ndefine function ToString(value FHIR.AuditEventOutcome): value.value\ndefine function ToString(value FHIR.SpecimenContainedPreference): value.value\ndefine function ToString(value FHIR.ActionRelationshipType): value.value\ndefine function ToString(value FHIR.ConstraintSeverity): value.value\ndefine function ToString(value FHIR.EventCapabilityMode): value.value\ndefine function ToString(value FHIR.CodeSearchSupport): value.value\ndefine function ToString(value FHIR.ObservationRangeCategory): value.value\ndefine function ToString(value FHIR.UDIEntryType): value.value\ndefine function ToString(value FHIR.DeviceMetricCategory): value.value\ndefine function ToString(value FHIR.TestReportActionResult): value.value\ndefine function ToString(value FHIR.CapabilityStatementKind): value.value\ndefine function ToString(value FHIR.EventTiming): value.value\ndefine function ToString(value FHIR.SearchParamType): value.value\ndefine function ToString(value FHIR.ActionGroupingBehavior): value.value\ndefine function ToString(value FHIR.StructureMapModelMode): value.value\ndefine function ToString(value FHIR.TaskStatus): value.value\ndefine function ToString(value FHIR.BiologicallyDerivedProductStorageScale): value.value\ndefine function ToString(value FHIR.GraphCompartmentRule): value.value\ndefine function ToString(value FHIR.SlicingRules): value.value\ndefine function ToString(value FHIR.ExplanationOfBenefitStatus): value.value\ndefine function ToString(value FHIR.GuideParameterCode): value.value\ndefine function ToString(value FHIR.CatalogEntryRelationType): value.value\ndefine function ToString(value FHIR.LinkType): value.value\ndefine function ToString(value FHIR.ConceptMapEquivalence): value.value\ndefine function ToString(value FHIR.AuditEventAction): value.value\ndefine function ToString(value FHIR.SearchModifierCode): value.value\ndefine function ToString(value FHIR.EventStatus): value.value\ndefine function ToString(value FHIR.OperationParameterUse): value.value\ndefine function ToString(value FHIR.ConsentProvisionType): value.value\ndefine function ToString(value FHIR.ActionConditionKind): value.value\ndefine function ToString(value FHIR.qualityType): value.value\ndefine function ToString(value FHIR.AdministrativeGender): value.value\ndefine function ToString(value FHIR.QuestionnaireItemType): value.value\ndefine function ToString(value FHIR.DeviceMetricCalibrationType): value.value\ndefine function ToString(value FHIR.EvidenceVariableType): value.value\ndefine function ToString(value FHIR.code): value.value\ndefine function ToString(value FHIR.ActionSelectionBehavior): value.value\ndefine function ToString(value FHIR.SupplyDeliveryStatus): value.value\ndefine function ToString(value FHIR.DiagnosticReportStatus): value.value\ndefine function ToString(value FHIR.FlagStatus): value.value\ndefine function ToString(value FHIR.SPDXLicense): value.value\ndefine function ToString(value FHIR.ListStatus): value.value\ndefine function ToString(value FHIR.base64Binary): value.value\ndefine function ToString(value FHIR.DeviceUseStatementStatus): value.value\ndefine function ToString(value FHIR.AuditEventAgentNetworkType): value.value\ndefine function ToString(value FHIR.ExpressionLanguage): value.value\ndefine function ToString(value FHIR.AddressUse): value.value\ndefine function ToString(value FHIR.ContactPointUse): value.value\ndefine function ToString(value FHIR.DeviceMetricOperationalStatus): value.value\ndefine function ToString(value FHIR.ContributorType): value.value\ndefine function ToString(value FHIR.ReferenceVersionRules): value.value\ndefine function ToString(value FHIR.MeasureReportStatus): value.value\ndefine function ToString(value FHIR.SearchEntryMode): value.value\ndefine function ToInteger(value FHIR.unsignedInt): value.value\ndefine function ToString(value FHIR.NameUse): value.value\ndefine function ToString(value FHIR.LocationMode): value.value\ndefine function ToInteger(value FHIR.integer): value.value\ndefine function ToString(value FHIR.FHIRSubstanceStatus): value.value\ndefine function ToString(value FHIR.QuestionnaireItemOperator): value.value\ndefine function ToString(value FHIR.HTTPVerb): value.value\ndefine function ToString(value FHIR.EpisodeOfCareStatus): value.value\ndefine function ToString(value FHIR.RemittanceOutcome): value.value\ndefine function ToString(value FHIR.markdown): value.value\ndefine function ToString(value FHIR.EligibilityRequestPurpose): value.value\ndefine function ToString(value FHIR.QuantityComparator): value.value\ndefine function ToString(value FHIR.MeasureReportType): value.value\ndefine function ToString(value FHIR.ActionPrecheckBehavior): value.value\ndefine function ToString(value FHIR.SampledDataDataType): value.value\ndefine function ToString(value FHIR.CompositionAttestationMode): value.value\ndefine function ToString(value FHIR.TypeRestfulInteraction): value.value\ndefine function ToString(value FHIR.CodeSystemHierarchyMeaning): value.value\ndefine function ToString(value FHIR.vConfidentialityClassification): value.value\ndefine function ToString(value FHIR.ContractResourcePublicationStatusCodes): value.value\ndefine function ToString(value FHIR.VisionBase): value.value\ndefine function ToString(value FHIR.BundleType): value.value\n</code></pre>\r\n                    \r\n                    \r\n                </td>\r\n            </tr>\r\n        \r\n    </table>\r\n</div>"
        },
        "version": "4.0.0",
        "name": "FHIRHelpers",
        "status": "active",
        "experimental": true,
        "type": {
          "coding": [
            {
              "system": "http://hl7.org/fhir/codesystem-library-type.html",
              "code": "logic-library"
            }
          ]
        },
        "content": [
          {
            "contentType": "application/elm+xml",
            "data": ""
          },
          {
            "contentType": "text/cql",
            "data": ""
          },
          {
            "contentType": "application/elm+xml",
            "data": ""
          },
          {
            "contentType": "text/cql",
            "data": ""
          }
        ]
      },
      "request": {
        "method": "PUT",
        "url": "Library/library-FHIRHelpers"
      }
    },
    {
      "resource": {
        "resourceType": "Encounter",
        "id": "mrp-out-e1",
        "status": "finished",
        "class": {
          "system": "http://hl7.org/fhir/v3/ActCode",
          "code": "IMP",
          "display": "inpatient encounter"
        },
        "type": [
          {
            "coding": [
              {
                "system": "http://snomed.info/sct",
                "code": "32485007",
                "display": "Hospital admission"
              }
            ]
          }
        ],
        "subject": {
          "reference": "Patient/mrp-out",
          "display": "Eve Veronica Everywoman"
        },
        "participant": [
          {
            "period": {
              "start": "2019-09-30T00:00:00-04:00",
              "end": "2019-09-30T14:19:00-04:00"
            },
            "individual": {
              "reference": "Practitioner/mrp-out",
              "display": "Stanley Jason Garrett MD"
            }
          }
        ],
        "period": {
          "start": "2019-09-30T00:00:00-04:00",
          "end": "2019-09-30T14:19:00-04:00"
        },
        "hospitalization": {
          "dischargeDisposition": {
            "coding": [
              {
                "system": "http://hl7.org/fhir/discharge-disposition",
                "code": "home",
                "display": "Home"
              }
            ]
          }
        },
        "location": [
          {
            "location": {
              "reference": "Location/Location-1001",
              "display": "Windward General Hospital"
            }
          }
        ],
        "serviceProvider": {
          "reference": "Organization/Organization-1001",
          "display": "Windward General Hospital"
        }
      },
      "request": {
        "method": "PUT",
        "url": "Encounter/mrp-out-e1"
      }
    },
    {
      "resource": {
        "resourceType": "Encounter",
        "id": "mrp-out-e2",
        "status": "finished",
        "class": {
          "system": "http://hl7.org/fhir/v3/ActCode",
          "code": "IMP",
          "display": "inpatient encounter"
        },
        "type": [
          {
            "coding": [
              {
                "system": "http://snomed.info/sct",
                "code": "32485007",
                "display": "Hospital admission"
              }
            ]
          }
        ],
        "subject": {
          "reference": "Patient/mrp-out",
          "display": "Eve Veronica Everywoman"
        },
        "participant": [
          {
            "period": {
              "start": "2019-11-30T00:00:00-04:00",
              "end": "2019-11-30T14:19:00-04:00"
            },
            "individual": {
              "reference": "Practitioner/mrp-out",
              "display": "Stanley Jason Garrett MD"
            }
          }
        ],
        "period": {
          "start": "2019-11-30T00:00:00-04:00",
          "end": "2019-11-30T14:19:00-04:00"
        },
        "hospitalization": {
          "dischargeDisposition": {
            "coding": [
              {
                "system": "http://hl7.org/fhir/discharge-disposition",
                "code": "home",
                "display": "Home"
              }
            ]
          }
        },
        "location": [
          {
            "location": {
              "reference": "Location/Location-1001",
              "display": "Windward General Hospital"
            }
          }
        ],
        "serviceProvider": {
          "reference": "Organization/Organization-1001",
          "display": "Windward General Hospital"
        }
      },
      "request": {
        "method": "PUT",
        "url": "Encounter/mrp-out-e2"
      }
    },
    {
      "resource": {
        "resourceType": "Library",
        "id": "library-NCQACommonLogic",
        "text": {
          "status": "generated",
          "div": "<div xmlns=\"http://www.w3.org/1999/xhtml\"><table class=\"grid dict\"><tr><th scope=\"row\"><b>Id: </b></th><td style=\"padding-left: 25px; padding-right: 25px;\">library-NCQACommonLogic</td></tr><tr><th scope=\"row\"><b>Type: </b></th><td style=\"padding-right: 25px;\"> logic-library </td></tr><tr><th scope=\"row\"><b>Version: </b></th><td style=\"padding-left: 25px; padding-right: 25px;\">3.10.000</td></tr><tr><th scope=\"row\"><b>Status: </b></th><td style=\"padding-left: 25px; padding-right: 25px;\">active</td></tr><tr style=\"vertical-align: top;\"><th rowspan=\"1\" scope=\"row\"><b>Related: </b></th><td style=\"padding-left: 25px; padding-right: 25px;\"><p style=\"margin-bottom: 5px;\"><b>type: </b><span>depends-on</span></p><p style=\"margin-bottom: 5px;\"><b>Resource: </b><br/><span>Library/library-FHIRHelpers</span></p></td></tr><tr style=\"vertical-align: top;\"><th rowspan=\"5\" scope=\"row\"><b>Data Requirements: </b></th><td style=\"padding-left: 25px; padding-right: 25px;\"><div xmlns=\"http://www.w3.org/1999/xhtml\"><p style=\"margin-bottom: 5px;\"><b>type: </b><span>Encounter</span></p></div></td></tr><tr style=\"vertical-align: top;\"><td style=\"padding-left: 25px; padding-right: 25px;\"><div xmlns=\"http://www.w3.org/1999/xhtml\"><p style=\"margin-bottom: 5px;\"><b>type: </b><span>Encounter</span></p><p style=\"margin-bottom: 5px;\"><b>code filter:</b><br/><span style=\"padding-left: 25px;\"><b>path: </b><span>type</span></span><br/><span style=\"padding-left: 25px;\"><b>valueset: </b><span>http://cts.nlm.nih.gov/fhir/ValueSet/2.16.840.1.113883.3.666.5.307</span></span></p></div></td></tr><tr style=\"vertical-align: top;\"><td style=\"padding-left: 25px; padding-right: 25px;\"><div xmlns=\"http://www.w3.org/1999/xhtml\"><p style=\"margin-bottom: 5px;\"><b>type: </b><span>Task</span></p><p style=\"margin-bottom: 5px;\"><b>code filter:</b><br/><span style=\"padding-left: 25px;\"><b>path: </b><span>code</span></span><br/><span style=\"padding-left: 25px;\"><b>valueset: </b><span>http://cts.nlm.nih.gov/fhir/ValueSet/2.16.840.1.113883.3.464.1003.101.12.1014</span></span></p></div></td></tr><tr style=\"vertical-align: top;\"><td style=\"padding-left: 25px; padding-right: 25px;\"><div xmlns=\"http://www.w3.org/1999/xhtml\"><p style=\"margin-bottom: 5px;\"><b>type: </b><span>Encounter</span></p><p style=\"margin-bottom: 5px;\"><b>code filter:</b><br/><span style=\"padding-left: 25px;\"><b>path: </b><span>type</span></span><br/><span style=\"padding-left: 25px;\"><b>valueset: </b><span>http://cts.nlm.nih.gov/fhir/ValueSet/2.16.840.1.113883.3.666.5.307</span></span></p></div></td></tr><tr style=\"vertical-align: top;\"><td style=\"padding-left: 25px; padding-right: 25px;\"><div xmlns=\"http://www.w3.org/1999/xhtml\"><p style=\"margin-bottom: 5px;\"><b>type: </b><span>Task</span></p><p style=\"margin-bottom: 5px;\"><b>code filter:</b><br/><span style=\"padding-left: 25px;\"><b>path: </b><span>code</span></span><br/><span style=\"padding-left: 25px;\"><b>valueset: </b><span>http://cts.nlm.nih.gov/fhir/ValueSet/2.16.840.1.113762.1.4.1108.15</span></span></p></div></td></tr><tr style=\"vertical-align: top;\"><th scope=\"row\"><b>Content: </b></th><td style=\"padding-left: 25px; padding-right: 25px;\"><b>type: </b><span>text/cql</span></td></tr><tr><td colspan=\"2\" style=\"padding-left: 25px; padding-right: 25px;\"><pre><code class=\"language-cql\">library NCQACommonLogic version '3.10.000'\n\nusing FHIR version '4.0.0'\n\ninclude FHIRHelpers version '4.0.0' called FHIRHelpers\n\ncodesystem &quot;LOINC&quot;: 'http://loinc.org'\ncodesystem &quot;SNOMEDCT&quot;: 'http://snomed.info/sct/731000124108'\ncodesystem &quot;SNOMEDCT:2015-09&quot;: 'http://snomed.info/sct/731000124108' version 'http://snomed.info/sct/731000124108/version/201509'\ncodesystem &quot;SNOMEDCT:2016-03&quot;: 'http://snomed.info/sct/731000124108' version 'http://snomed.info/sct/731000124108/version/201603'\n\nvalueset &quot;Encounter Inpatient&quot;: 'http://cts.nlm.nih.gov/fhir/ValueSet/2.16.840.1.113883.3.666.5.307'\nvalueset &quot;Hospice care ambulatory&quot;: 'http://cts.nlm.nih.gov/fhir/ValueSet/2.16.840.1.113762.1.4.1108.15'\nvalueset &quot;Care Services in Long-Term Residential Facility&quot;: 'http://cts.nlm.nih.gov/fhir/ValueSet/2.16.840.1.113883.3.464.1003.101.12.1014'\n//valueset &quot;NCQA Payer&quot;: 'http://ncqa.org/hedis/ValueSet/2.16.840.1.113762.1.4.1165.42'\n//valueset &quot;X Institutional SNP Value Set&quot;: 'http://ncqa.org/hedis/ValueSet/2.16.840.1.113762.1.4.1165.43'\n//valueset &quot;Medicare&quot;: 'http://ncqa.org/hedis/ValueSet/2.16.840.1.113762.1.4.1165.44'\n//valueset &quot;Medicaid&quot;: 'http://ncqa.org/hedis/ValueSet/2.16.840.1.113762.1.4.1165.45'\n//valueset &quot;Commercial&quot;: 'http://ncqa.org/hedis/ValueSet/2.16.840.1.113762.1.4.1165.46'\n\n\ncode &quot;Birthdate&quot;: '21112-8' from &quot;LOINC&quot; display 'Birthdate'\ncode &quot;Dead&quot;: '419099009' from &quot;SNOMEDCT&quot; display 'Dead'\ncode &quot;Discharge to healthcare facility for hospice care (procedure)&quot;: '428371000124100' from &quot;SNOMEDCT:2015-09&quot; display 'Discharge to healthcare facility for hospice care (procedure)'\ncode &quot;Discharge to home for hospice care (procedure)&quot;: '428361000124107' from &quot;SNOMEDCT:2015-09&quot; display 'Discharge to home for hospice care (procedure)'\ncode &quot;Long term care hospital (environment)&quot;: '32074000' from &quot;SNOMEDCT:2016-03&quot; display 'Long term care hospital (environment)'\ncode &quot;Patient transfer, to another health care facility (procedure)&quot;: '19712007' from &quot;SNOMEDCT:2016-03&quot; display 'Patient transfer, to another health care facility (procedure)'\ncode &quot;Referral to long term care service (procedure)&quot;: '417708006' from &quot;SNOMEDCT:2016-03&quot; display 'Referral to long term care service (procedure)'\n\nparameter &quot;Measurement Period&quot; default Interval[@2019-01-01T00:00, @2020-01-01T00:00)\n\ncontext Patient\n\ndefine &quot;Is Enrolled in Institutional SNP&quot;:\n  exists ( [&quot;Encounter&quot;/*: &quot;X Institutional SNP Value Set&quot;*/] SNP\n      where SNP.status in { 'in-progress', 'finished' }\n        and SNP.period overlaps &quot;Measurement Period&quot;\n  )\n\ndefine &quot;Is Living Long Term in Institution&quot;:\n  exists ( [&quot;Encounter&quot;: &quot;Encounter Inpatient&quot;] DischargeLongTerm\n      where DischargeLongTerm.status in { 'in-progress', 'finished' }\n        and ( FHIRHelpers.ToConcept(DischargeLongTerm.hospitalization.dischargeDisposition) ~ &quot;Patient transfer, to another health care facility (procedure)&quot;\n          or FHIRHelpers.ToConcept(DischargeLongTerm.hospitalization.dischargeDisposition) ~ &quot;Referral to long term care service (procedure)&quot;\n      )\n        and DischargeLongTerm.period ends during &quot;Measurement Period&quot;\n  )\n    // TODO: Consider whether this should be Procedure or Task? (See http://build.fhir.org/ig/cqframework/qi-core/Intervention.html#Intervention)\n    or exists ( [&quot;Task&quot;: &quot;Care Services in Long-Term Residential Facility&quot;] LongTermOrder\n        where LongTermOrder.intent = 'order'\n          and (LongTermOrder.authoredOn during &quot;Measurement Period&quot;\n            or LongTermOrder.executionPeriod overlaps &quot;Measurement Period&quot;\n          )\n    )\n    // TODO: For the mapping to task, both Order and Performed map to a Task with intent of order, the fact that\n    // the task is performed seems to be best captured by the presence of an executionPeriod... This would be\n    // worth some discussion with the Workflow Group on the intended representation here\n    //or exists ( [&quot;Task&quot;: &quot;Care Services in Long-Term Residential Facility&quot;] LongTermPerformed\n    //    where LongTermPerformed.\n    //    LongTermPerformed.relevantPeriod overlaps &quot;Measurement Period&quot;\n    //)\n\n/*This is the standard NCQA Hospice exclusion logic from 3.6.2018*/\ndefine &quot;Has Hospice&quot;:\n  exists ( [&quot;Encounter&quot;: &quot;Encounter Inpatient&quot;] DischargeHospice\n      where DischargeHospice.status in { 'in-progress', 'finished' }\n        and ( FHIRHelpers.ToConcept(DischargeHospice.hospitalization.dischargeDisposition) ~ &quot;Discharge to home for hospice care (procedure)&quot;\n          or FHIRHelpers.ToConcept(DischargeHospice.hospitalization.dischargeDisposition) ~ &quot;Discharge to healthcare facility for hospice care (procedure)&quot;\n      )\n        and DischargeHospice.period ends during &quot;Measurement Period&quot;\n  )\n    or exists ( [&quot;Task&quot;: &quot;Hospice care ambulatory&quot;] HospiceTask\n        where HospiceTask.intent = 'order'\n          and (HospiceTask.authoredOn during &quot;Measurement Period&quot;\n            or HospiceTask.executionPeriod overlaps &quot;Measurement Period&quot;\n          )\n    )\n    // TODO: See discussion in &quot;Is Living Long Term in Institution&quot;\n    //or exists ( [&quot;Intervention, Order&quot;: &quot;Hospice care ambulatory&quot;] HospiceOrder\n    //    where HospiceOrder.authorDatetime during &quot;Measurement Period&quot;\n    //)\n    //or exists ( [&quot;Intervention, Performed&quot;: &quot;Hospice care ambulatory&quot;] HospicePerformed\n    //    where HospicePerformed.relevantPeriod overlaps &quot;Measurement Period&quot;\n    //)\n\n/*ToDate takes a given DateTime value and returns a DateTime with the time components &quot;zeroed&quot;, and the timezone of the input value, for example */\ndefine function &quot;ToDate&quot;(Value DateTime ):\n  DateTime(year from Value, month from Value, day from Value, 0, 0, 0, 0, timezone from Value)\n\n/*CalendarAgeInDaysAt calculates the calendar age (meaning the age without considering time components) in days*/\ndefine function &quot;CalendarAgeInDaysAt&quot;(BirthDateTime DateTime, AsOf DateTime ):\n  days between ToDate(BirthDateTime)and ToDate(AsOf)\n\n/*CalendarAgeInDays calculates the calendar age (meaning the age without considering time components) in days as of today*/\ndefine function &quot;CalendarAgeInDays&quot;(BirthDateTime DateTime ):\n  CalendarAgeInDaysAt(BirthDateTime, Today())\n\n/*CalendarAgeInMonthsAt calculates the calendar age (meaning the age without considering time components) in months*/\ndefine function &quot;CalendarAgeInMonthsAt&quot;(BirthDateTime DateTime, AsOf DateTime ):\n  months between ToDate(BirthDateTime)and ToDate(AsOf)\n\ndefine function &quot;CalendarAgeInMonths&quot;(BirthDateTime DateTime ):\n  CalendarAgeInMonthsAt(BirthDateTime, Today())\n\n/*calculates the difference in calendar days between the start and end of the given interval*/\ndefine function &quot;LengthInDays&quot;(Value Interval&lt;DateTime&gt; ):\n  difference in days between start of Value and end of Value\n\n/*CalendarAgeInYearsAt calculates the calendar age (meaning the age without considering time components) in years*/\ndefine function &quot;CalendarAgeInYearsAt&quot;(BirthDateTime DateTime, AsOf DateTime ):\n  years between ToDate(BirthDateTime)and ToDate(AsOf)\n\n/*CalendarAgeInYears calculates the calendar age (meaning the age without considering time components) in years as of today */\ndefine function &quot;CalendarAgeInYears&quot;(BirthDateTime DateTime ):\n  CalendarAgeInYearsAt(BirthDateTime, Today())\n</code></pre>\r\n                    \r\n                    \r\n                </td>\r\n            </tr>\r\n        \r\n    </table>\r\n</div>"
        },
        "version": "3.10.000",
        "name": "NCQACommonLogic",
        "status": "active",
        "experimental": true,
        "type": {
          "coding": [
            {
              "system": "http://hl7.org/fhir/codesystem-library-type.html",
              "code": "logic-library"
            }
          ]
        },
        "relatedArtifact": [
          {
            "type": "depends-on",
            "resource": "Library/library-FHIRHelpers"
          }
        ],
        "dataRequirement": [
          {
            "type": "Encounter"
          },
          {
            "type": "Encounter",
            "codeFilter": [
              {
                "path": "type",
                "valueSet": "http://cts.nlm.nih.gov/fhir/ValueSet/2.16.840.1.113883.3.666.5.307"
              }
            ]
          },
          {
            "type": "Task",
            "codeFilter": [
              {
                "path": "code",
                "valueSet": "http://cts.nlm.nih.gov/fhir/ValueSet/2.16.840.1.113883.3.464.1003.101.12.1014"
              }
            ]
          },
          {
            "type": "Encounter",
            "codeFilter": [
              {
                "path": "type",
                "valueSet": "http://cts.nlm.nih.gov/fhir/ValueSet/2.16.840.1.113883.3.666.5.307"
              }
            ]
          },
          {
            "type": "Task",
            "codeFilter": [
              {
                "path": "code",
                "valueSet": "http://cts.nlm.nih.gov/fhir/ValueSet/2.16.840.1.113762.1.4.1108.15"
              }
            ]
          }
        ],
        "content": [
          {
            "contentType": "application/elm+xml",
            "data": ""
          },
          {
            "contentType": "text/cql",
            "data": ""
          },
          {
            "contentType": "application/elm+xml",
            "data": ""
          },
          {
            "contentType": "text/cql",
            "data": ""
          }
        ]
      },
      "request": {
        "method": "PUT",
        "url": "Library/library-NCQACommonLogic"
      }
    },
    {
      "resource": {
        "resourceType": "Practitioner",
        "id": "mrp-denom",
        "identifier": [
          {
            "use": "official",
            "type": {
              "coding": [
                {
                  "system": "http://hl7.org/fhir/identifier-type",
                  "code": "SB",
                  "display": "Social Beneficiary Identifier"
                }
              ],
              "text": "US Social Security Number"
            },
            "system": "http://hl7.org/fhir/sid/us-ssn",
            "value": "000002519"
          },
          {
            "use": "official",
            "type": {
              "coding": [
                {
                  "system": "http://hl7.org/fhir/v2/0203",
                  "code": "PRN",
                  "display": "Provider number"
                }
              ],
              "text": "US National Provider Identifier"
            },
            "system": "http://hl7.org/fhir/sid/us-npi",
            "value": "999992519"
          }
        ],
        "active": true,
        "name": [
          {
            "family": "Garrett",
            "given": [
              "Stanley",
              "Jason"
            ],
            "suffix": [
              "MD"
            ]
          }
        ],
        "telecom": [
          {
            "system": "phone",
            "value": "616-555-2401",
            "use": "work"
          },
          {
            "system": "phone",
            "value": "616-555-7849",
            "use": "mobile"
          }
        ],
        "address": [
          {
            "use": "work",
            "type": "postal",
            "line": [
              "352 NW Cedar Drive",
              "#29"
            ],
            "city": "Northport",
            "district": "Leelanau County",
            "state": "MI",
            "postalCode": "49670"
          }
        ],
        "gender": "male",
        "birthDate": "1965-09-14",
        "qualification": [
          {
            "code": {
              "coding": [
                {
                  "system": "http://hl7.org/fhir/v2/0360/2.7",
                  "code": "MD"
                }
              ],
              "text": "Qualification, Doctor of Medicine"
            }
          }
        ]
      },
      "request": {
        "method": "PUT",
        "url": "Practitioner/mrp-denom"
      }
    },
    {
      "resource": {
        "resourceType": "ValueSet",
        "id": "hedis-med-rec-practitioner",
        "meta": {
          "versionId": "1",
          "lastUpdated": "2018-06-01T16:03:13.000+00:00"
        },
        "url": "http://ncqa.org/fhir/hedis/ValueSet/hedis-med-rec-practitioner",
        "version": "1.0.0",
        "name": "HEDISMedRecPractitioner",
        "status": "draft",
        "description": "Practitioner codes for providers that can perform medication reconciliation",
        "compose": {
          "include": [
            {
              "system": "http://hl7.org/fhir/v2/0360/2.7",
              "concept": [
                {
                  "code": "CRN",
                  "display": "Certified Registered Nurse"
                },
                {
                  "code": "CNP",
                  "display": "Certified Nurse Practitioner"
                },
                {
                  "code": "DO",
                  "display": "Doctor of Osteopathy"
                },
                {
                  "code": "MD",
                  "display": "Doctor of Medicine"
                },
                {
                  "code": "NP",
                  "display": "Nurse Practitioner"
                },
                {
                  "code": "RN",
                  "display": "Registered Nurse"
                },
                {
                  "code": "PharmD",
                  "display": "Doctor of Pharmacy"
                },
                {
                  "code": "RPH",
                  "display": "Registered Pharmacist"
                }
              ]
            }
          ]
        }
      },
      "request": {
        "method": "PUT",
        "url": "ValueSet/hedis-med-rec-practitioner/_history/1"
      }
    },
    {
      "resource": {
        "resourceType": "Coverage",
        "id": "mrp-out",
        "text": {
          "status": "generated"
        },
        "identifier": [
          {
            "system": "http://benefitsinc.com/certificate",
            "value": "12345"
          }
        ],
        "status": "active",
        "type": {
          "coding": [
            {
              "system": "http://hl7.org/fhir/v3/ActCode",
              "code": "medicare",
              "display": "Medicare Coverage"
            }
          ]
        },
        "policyHolder": {
          "reference": "Patient/mrp-out"
        },
        "subscriber": {
          "reference": "Patient/mrp-out"
        },
        "beneficiary": {
          "reference": "Patient/mrp-out"
        },
        "dependent": "0",
        "relationship": {
          "coding": [
            {
              "code": "self"
            }
          ]
        },
        "period": {
          "start": "2017-01-01",
          "end": "2020-01-01"
        },
        "payor": [
          {
            "reference": "Organization/Organization-1106"
          }
        ],
        "class": [
          {
            "type": {
              "coding": [
                {
                  "system": "http://terminology.hl7.org/CodeSystem/coverage-class",
                  "code": "group"
                }
              ]
            },
            "value": "CBI35",
            "name": "Corporate Baker's Inc. Local #35"
          },
          {
            "type": {
              "coding": [
                {
                  "system": "http://terminology.hl7.org/CodeSystem/coverage-class",
                  "code": "subgroup"
                }
              ]
            },
            "value": "123",
            "name": "Trainee Part-time Benefits"
          },
          {
            "type": {
              "coding": [
                {
                  "system": "http://terminology.hl7.org/CodeSystem/coverage-class",
                  "code": "plan"
                }
              ]
            },
            "value": "B37FC",
            "name": "Full Coverage: Medical, Dental, Pharmacy, Vision, EHC"
          },
          {
            "type": {
              "coding": [
                {
                  "system": "http://terminology.hl7.org/CodeSystem/coverage-class",
                  "code": "subplan"
                }
              ]
            },
            "value": "P7",
            "name": "Includes afterlife benefits"
          },
          {
            "type": {
              "coding": [
                {
                  "system": "http://terminology.hl7.org/CodeSystem/coverage-class",
                  "code": "class"
                }
              ]
            },
            "value": "SILVER",
            "name": "Silver: Family Plan spouse only"
          },
          {
            "type": {
              "coding": [
                {
                  "system": "http://terminology.hl7.org/CodeSystem/coverage-class",
                  "code": "subclass"
                }
              ]
            },
            "value": "Tier2",
            "name": "Low deductable, max $20 copay"
          }
        ],
        "order": 9
      },
      "request": {
        "method": "PUT",
        "url": "Coverage/mrp-out"
      }
    },
    {
      "resource": {
        "resourceType": "Patient",
        "id": "mrp-in",
        "extension": [
          {
            "url": "http://hl7.org/fhir/us/core/StructureDefinition/us-core-race",
            "valueCodeableConcept": {
              "coding": [
                {
                  "system": "http://hl7.org/fhir/v3/Race",
                  "code": "2056-0",
                  "display": "Black"
                }
              ]
            }
          },
          {
            "url": "http://hl7.org/fhir/us/core/StructureDefinition/us-core-ethnicity",
            "valueCodeableConcept": {
              "coding": [
                {
                  "system": "http://hl7.org/fhir/v3/Ethnicity",
                  "code": "2186-5",
                  "display": "Not Hispanic or Latino"
                }
              ]
            }
          },
          {
            "url": "http://hl7.org/fhir/us/core/StructureDefinition/us-core-religion",
            "valueCodeableConcept": {
              "coding": [
                {
                  "system": "http://hl7.org/fhir/v3/ReligiousAffiliation",
                  "code": "1004",
                  "display": "Agnosticism"
                }
              ]
            }
          }
        ],
        "identifier": [
          {
            "use": "official",
            "type": {
              "coding": [
                {
                  "system": "http://hl7.org/fhir/identifier-type",
                  "code": "SB",
                  "display": "Social Beneficiary Identifier"
                }
              ],
              "text": "US Social Security Number"
            },
            "system": "http://hl7.org/fhir/sid/us-ssn",
            "value": "000002668"
          }
        ],
        "active": true,
        "name": [
          {
            "family": "Everywoman",
            "given": [
              "Eve",
              "Veronica"
            ]
          }
        ],
        "telecom": [
          {
            "system": "phone",
            "value": "901-555-5864",
            "use": "home"
          },
          {
            "system": "phone",
            "value": "901-555-9891",
            "use": "mobile"
          }
        ],
        "gender": "female",
        "birthDate": "1999-05-21",
        "address": [
          {
            "use": "home",
            "type": "postal",
            "line": [
              "666 Eden Circle"
            ],
            "city": "Boise",
            "district": "Ada County",
            "state": "ID",
            "postalCode": "83701"
          }
        ]
      },
      "request": {
        "method": "PUT",
        "url": "Patient/mrp-in"
      }
    },
    {
      "resource": {
        "resourceType": "Measure",
        "id": "measure-mrpfhir",
        "url": "http://ncqa.org/fhir/hedis/Measure/measure-mrp-fhir",
        "identifier": [
          {
            "system": "http://ncqa.org/hedis/identifiers",
            "value": "MRP"
          }
        ],
        "version": "1.0.000",
        "name": "MRP_FHIR",
        "title": "MRP Measure",
        "status": "active",
        "experimental": true,
        "date": "2015-03-08",
        "publisher": "National Committee for Quality Assurance",
        "contact": [
          {
            "telecom": [
              {
                "system": "url",
                "value": "http://ncqa.org"
              }
            ]
          }
        ],
        "description": "Proportion of discharges with a medication reconciliation followup within 30 days of discharge (MRP) Measure",
        "jurisdiction": [
          {
            "coding": [
              {
                "system": "urn:iso:std:iso:3166",
                "code": "US",
                "display": "United States of America"
              }
            ],
            "text": "United States of America (the)"
          }
        ],
        "copyright": "The HEDIS measure specifications were developed by and are owned by NCQA. The HEDIS measure specifications are not clinical guidelines and do not establish a standard of medical care. NCQA makes no representations, warranties, or endorsement about the quality of any organization or physician that uses or reports performance measures and NCQA has no liability to anyone who relies on such measure specifications. These materials may not be modified by anyone other than NCQA. Anyone desiring to use or reproduce the materials without modification for a non-commercial purpose may do so without obtaining any approval from NCQA. **Any commercial use (including but not limited to vendors using the measure specifications with a product or service, including calculation of measure results) must be approved by NCQA and are subject to a license at the discretion of NCQA**. &copy; 2019 NCQA, all rights reserved.",
        "approvalDate": "2018-08-14",
        "lastReviewDate": "2018-08-14",
        "effectivePeriod": {
          "start": "2018-01-01",
          "end": "2018-12-31"
        },
        "topic": [
          {
            "coding": [
              {
                "system": "http://loinc.org",
                "code": "57024-2"
              }
            ]
          }
        ],
        "author": [
          {
            "name": "National Committee for Quality Assurance"
          }
        ],
        "library": [
          "Library/library-MRP-FHIR"
        ],
        "disclaimer": "Limited proprietary coding is contained in the measure specifications for convenience. NCQA disclaims all liability for use or accuracy of any third-party code values contained in the specifications. The American Medical Association holds a copyright to the CPT&reg; codes contained in the measure specifications.The American Hospital Association holds a copyright to the Uniform Billing Codes (UB) contained in the measure specifications. The UB Codes in the HEDIS specifications are included with the permission of the AHA. The UB Codes contained in the HEDIS specifications may be used by health plans and other health care delivery organizations for the purpose of calculating and reporting HEDIS measure results or using HEDIS measure results for their internal quality improvement purposes. All other uses of the UB Codes require a license from the AHA. Anyone desiring to use the UB Codes in a commercial product to generate HEDIS results, or for any other commercial use, must obtain a commercial use license directly from the AHA. To inquire about licensing, contact ub04@aha.org.",
        "scoring": {
          "coding": [
            {
              "code": "proportion"
            }
          ]
        },
        "type": [
          {
            "coding": [
              {
                "code": "process"
              }
            ]
          }
        ],
        "improvementNotation": {
          "coding": [
            {
              "system": "http://terminology.hl7.org/CodeSystem/measure-improvement-notation",
              "code": "increase"
            }
          ]
        },
        "group": [
          {
            "id": "main-group",
            "population": [
              {
                "code": {
                  "coding": [
                    {
                      "system": "http://terminology.hl7.org/CodeSystem/measure-population",
                      "code": "initial-population",
                      "display": "Initial Population"
                    }
                  ]
                },
                "criteria": {
                  "language": "text/cql",
                  "expression": "Initial Population"
                }
              },
              {
                "code": {
                  "coding": [
                    {
                      "system": "http://terminology.hl7.org/CodeSystem/measure-population",
                      "code": "numerator",
                      "display": "Numerator"
                    }
                  ]
                },
                "criteria": {
                  "language": "text/cql",
                  "expression": "Numerator"
                }
              },
              {
                "code": {
                  "coding": [
                    {
                      "system": "http://terminology.hl7.org/CodeSystem/measure-population",
                      "code": "denominator",
                      "display": "Denominator"
                    }
                  ]
                },
                "criteria": {
                  "language": "text/cql",
                  "expression": "Denominator"
                }
              },
              {
                "code": {
                  "coding": [
                    {
                      "system": "http://terminology.hl7.org/CodeSystem/measure-population",
                      "code": "denominator-exclusion",
                      "display": "Denominator Exclusion"
                    }
                  ]
                },
                "criteria": {
                  "language": "text/cql",
                  "expression": "Denominator Exclusion"
                }
              }
            ]
          }
        ]
      },
      "request": {
        "method": "PUT",
        "url": "Measure/measure-mrpfhir"
      }
    },
    {
      "resource": {
        "resourceType": "Coverage",
        "id": "mrp-denom",
        "text": {
          "status": "generated"
        },
        "identifier": [
          {
            "system": "http://benefitsinc.com/certificate",
            "value": "12345"
          }
        ],
        "status": "active",
        "type": {
          "coding": [
            {
              "system": "http://hl7.org/fhir/v3/ActCode",
              "code": "medicare",
              "display": "Medicare Coverage"
            }
          ]
        },
        "policyHolder": {
          "reference": "Patient/mrp-denom"
        },
        "subscriber": {
          "reference": "Patient/mrp-denom"
        },
        "beneficiary": {
          "reference": "Patient/mrp-denom"
        },
        "dependent": "0",
        "relationship": {
          "coding": [
            {
              "code": "self"
            }
          ]
        },
        "period": {
          "start": "2017-01-01",
          "end": "2020-01-01"
        },
        "payor": [
          {
            "reference": "Organization/Organization-1106"
          }
        ],
        "class": [
          {
            "type": {
              "coding": [
                {
                  "system": "http://terminology.hl7.org/CodeSystem/coverage-class",
                  "code": "group"
                }
              ]
            },
            "value": "CBI35",
            "name": "Corporate Baker's Inc. Local #35"
          },
          {
            "type": {
              "coding": [
                {
                  "system": "http://terminology.hl7.org/CodeSystem/coverage-class",
                  "code": "subgroup"
                }
              ]
            },
            "value": "123",
            "name": "Trainee Part-time Benefits"
          },
          {
            "type": {
              "coding": [
                {
                  "system": "http://terminology.hl7.org/CodeSystem/coverage-class",
                  "code": "plan"
                }
              ]
            },
            "value": "B37FC",
            "name": "Full Coverage: Medical, Dental, Pharmacy, Vision, EHC"
          },
          {
            "type": {
              "coding": [
                {
                  "system": "http://terminology.hl7.org/CodeSystem/coverage-class",
                  "code": "subplan"
                }
              ]
            },
            "value": "P7",
            "name": "Includes afterlife benefits"
          },
          {
            "type": {
              "coding": [
                {
                  "system": "http://terminology.hl7.org/CodeSystem/coverage-class",
                  "code": "class"
                }
              ]
            },
            "value": "SILVER",
            "name": "Silver: Family Plan spouse only"
          },
          {
            "type": {
              "coding": [
                {
                  "system": "http://terminology.hl7.org/CodeSystem/coverage-class",
                  "code": "subclass"
                }
              ]
            },
            "value": "Tier2",
            "name": "Low deductable, max $20 copay"
          }
        ],
        "order": 9
      },
      "request": {
        "method": "PUT",
        "url": "Coverage/mrp-denom"
      }
    },
    {
      "resource": {
        "resourceType": "Library",
        "id": "library-ParticipationLogic",
        "text": {
          "status": "generated",
          "div": "<div xmlns=\"http://www.w3.org/1999/xhtml\"><table class=\"grid dict\"><tr><th scope=\"row\"><b>Id: </b></th><td style=\"padding-left: 25px; padding-right: 25px;\">library-ParticipationLogic</td></tr><tr><th scope=\"row\"><b>Type: </b></th><td style=\"padding-right: 25px;\"> logic-library </td></tr><tr><th scope=\"row\"><b>Version: </b></th><td style=\"padding-left: 25px; padding-right: 25px;\">1.0.0</td></tr><tr><th scope=\"row\"><b>Status: </b></th><td style=\"padding-left: 25px; padding-right: 25px;\">active</td></tr><tr style=\"vertical-align: top;\"><th rowspan=\"1\" scope=\"row\"><b>Related: </b></th><td style=\"padding-left: 25px; padding-right: 25px;\"><p style=\"margin-bottom: 5px;\"><b>type: </b><span>depends-on</span></p><p style=\"margin-bottom: 5px;\"><b>Resource: </b><br/><span>Library/library-FHIRHelpers</span></p></td></tr><tr style=\"vertical-align: top;\"><th rowspan=\"6\" scope=\"row\"><b>Data Requirements: </b></th><td style=\"padding-left: 25px; padding-right: 25px;\"><div xmlns=\"http://www.w3.org/1999/xhtml\"><p style=\"margin-bottom: 5px;\"><b>type: </b><span>Coverage</span></p></div></td></tr><tr style=\"vertical-align: top;\"><td style=\"padding-left: 25px; padding-right: 25px;\"><div xmlns=\"http://www.w3.org/1999/xhtml\"><p style=\"margin-bottom: 5px;\"><b>type: </b><span>Coverage</span></p></div></td></tr><tr style=\"vertical-align: top;\"><td style=\"padding-left: 25px; padding-right: 25px;\"><div xmlns=\"http://www.w3.org/1999/xhtml\"><p style=\"margin-bottom: 5px;\"><b>type: </b><span>Coverage</span></p></div></td></tr><tr style=\"vertical-align: top;\"><td style=\"padding-left: 25px; padding-right: 25px;\"><div xmlns=\"http://www.w3.org/1999/xhtml\"><p style=\"margin-bottom: 5px;\"><b>type: </b><span>Coverage</span></p></div></td></tr><tr style=\"vertical-align: top;\"><td style=\"padding-left: 25px; padding-right: 25px;\"><div xmlns=\"http://www.w3.org/1999/xhtml\"><p style=\"margin-bottom: 5px;\"><b>type: </b><span>Coverage</span></p></div></td></tr><tr style=\"vertical-align: top;\"><td style=\"padding-left: 25px; padding-right: 25px;\"><div xmlns=\"http://www.w3.org/1999/xhtml\"><p style=\"margin-bottom: 5px;\"><b>type: </b><span>Coverage</span></p></div></td></tr><tr style=\"vertical-align: top;\"><th scope=\"row\"><b>Content: </b></th><td style=\"padding-left: 25px; padding-right: 25px;\"><b>type: </b><span>text/cql</span></td></tr><tr><td colspan=\"2\" style=\"padding-left: 25px; padding-right: 25px;\"><pre><code class=\"language-cql\">library ParticipationLogic version '1.0.0'\n\nusing FHIR version '4.0.0'\n\ninclude FHIRHelpers version '4.0.0' called FHIRHelpers\n\n//valueset &quot;NCQA Payer&quot;: 'http://ncqa.org/fhir/hedis/ValueSet/ncqa-payer' //'urn:oid:2.16.840.1.113762.1.4.1165.42'\n//valueset &quot;Commercial&quot;: 'http://ncqa.org/hedis/ValueSet/2.16.840.1.113762.1.4.1165.46'\n//valueset &quot;Medicaid&quot;: 'http://ncqa.org/hedis/ValueSet/2.16.840.1.113762.1.4.1165.45'\n//valueset &quot;Medicare&quot;: 'http://ncqa.org/hedis/ValueSet/2.16.840.1.113762.1.4.1165.44'\n\ncontext Patient\n\ndefine &quot;Medicaid Product&quot;:\n\t'medicaid'\n\ndefine &quot;Commercial Product&quot;:\n\t'commercial'\n\ndefine &quot;Medicare Product&quot;:\n\t'medicare'\n\n/*\n  Report in the product line based on which product they are enrolled in at a given date\n\t(generally the end of the measurement period) but continuous enrollment calculations\n\tshould consider all participation periods, regardless of product\n\n\tInput parameters:\n\t\tProduct Line: The product line being reported\n\t\tIndex Date: Generally measurement period, but could be tied to an event\n\t\tParticipation Period: Generally one year, two years, or twenty seven months, but could be based on an event\n\t\tAllowed Gap Days: Generally 45 days, but could be 0\n\n\tExample 1 - One year continuously enrolled\n\t\t&quot;Is Enrolled&quot;(ProductLine, end of &quot;Measurement Period&quot;, &quot;Measurement Period&quot;, 45)\n\n\tExample 2 - Two years continuously enrolled\n\t  &quot;Is Enrolled&quot;(ProductLine, end of &quot;Measurement Period&quot;, Interval[start of &quot;Measurement Period&quot; - 1 year, end of &quot;Measurement Period&quot;], 45)\n\n\tExample 3 - Twenty seven months continuously enrolled\n\t\t&quot;Is Enrolled&quot;(ProductLine, end of &quot;Measurement Period&quot;, Interval[start of &quot;Measurement Period&quot; - 2 years - 3 months, end of &quot;Measurement Period&quot;], 45)\n\n\tExample 4 - Continuously enrolled surrounding an index event such as a heart attack\n\t\t&quot;Is Enrolled&quot;(ProductLine, &quot;Date of Heart Attack&quot;, Interval[&quot;Date of Heart Attack&quot;, &quot;Date of Heart Attack&quot; + 18 months], 45)\n\n\tExample 5 - Continuously enrolled with no gaps during the 9 months prior to a birth and for the following year, allowing for a gap\n\t  &quot;Is Enrolled&quot;(ProductLine, &quot;Date Of Delivery&quot;, Interval[&quot;Date Of Delivery&quot; - 9 months, &quot;Date Of Delivery&quot;], 0)\n\t\t  and &quot;Is Enrolled&quot;(ProductLine, &quot;Date Of Delivery&quot;, Interval[&quot;Date Of Delivery&quot;, &quot;Date Of Delivery&quot; + 1 year], 45)\n*/\ndefine function &quot;Is Enrolled&quot;(ProductLine String, IndexDate DateTime, ParticipationPeriod Interval&lt;DateTime&gt;, AllowedGapDays Integer):\n\tcase\n\t\t/* If this is not running for a specific product line, ignore enrollment considerations */\n\t\twhen ProductLine is null then true\n\t\telse\n\t\t\t/* Is the patient enrolled in the given product line on the given index date? */\n\t\t\t&quot;Is Enrolled On Date&quot;(ProductLine, IndexDate)\n\t\t\t/* Is the patient continuously enrolled in every year of the participation period */\n\t\t\t  and AllTrue(\n\t\t\t\t\t\t(&quot;Enrollment Periods&quot;(ParticipationPeriod)) EnrollmentPeriod\n\t\t\t\t\t\t\treturn &quot;Is Continuously Enrolled In Period&quot;(EnrollmentPeriod, if duration in months of EnrollmentPeriod &gt;= 6 then AllowedGapDays else 0)\n\t\t\t\t\t)\n\tend\n\n/*\nReturns all Commercial, Medicaid, and Medicare participation for the patient\n*/\ndefine &quot;Participation&quot;:\n  [&quot;Coverage&quot;/*: type in &quot;Commercial&quot;*/]\n\t  union [&quot;Coverage&quot;/*: type in &quot;Medicaid&quot;*/]\n\t\tunion [&quot;Coverage&quot;/*: type in &quot;Medicare&quot;*/]\n\ndefine function &quot;Is Enrolled On Date&quot;(ProductLine String, IndexDate DateTime):\n  exists (\n\t\t(\n\t\t\tcase ProductLine\n\t\t\t  when &quot;Commercial Product&quot; then [&quot;Coverage&quot;/*: type in &quot;Commercial&quot;*/]\n\t\t\t\twhen &quot;Medicare Product&quot; then [&quot;Coverage&quot;/*: type in &quot;Medicare&quot;*/]\n\t\t\t\twhen &quot;Medicaid Product&quot; then [&quot;Coverage&quot;/*: type in &quot;Medicaid&quot;*/]\n\t\t\t\telse null\n\t\t\tend\n\t\t) P\n\t\t\twhere IndexDate during P.period\n\t)\n\n/*\nReturns enrollment periods of up to a year ending at the end of the participation period.\nNote that this will not return more than 3 years (would need the expand from 1.3 to support more generally)\n\nFor example, given the following participation period:\n\n        10/1/16 1/1/17       1/1/18      12/31/18\n            [---||------------||------------]\n\nThe function will return the following enrollment periods:\n\n            [---][------------][------------]\n\nIn values:\nParticipation Period: Interval[@2016-10-01, @2018-12-31]\nEnrollment Periods: { Interval[@2016-10-01, @2016-12-31], Interval[@2017-01-01, @2017-12-31] Interval[@2018-01-01, @2018-12-31] }\n*/\ndefine function &quot;Enrollment Periods&quot;(ParticipationPeriod Interval&lt;DateTime&gt;):\n  ( { 3 years, 2 years, 1 year } ) Year\n\t  where end of ParticipationPeriod - (Year - 1 year) after start of ParticipationPeriod\n\t  return\n\t\t  Interval[\n\t\t    Max({ successor of (end of ParticipationPeriod - Year), start of ParticipationPeriod }),\n\t\t\t\tend of ParticipationPeriod - (Year - 1 year)\n\t\t\t]\n\n/*\n//Tests:\ndefine TestTwentySevenMonthParticipationPeriod: Interval[@2016-10-01, @2018-12-31]\ndefine TestExpectedTwentySevenMonthEnrollmentPeriods: { Interval[@2016-10-01, @2016-12-31], Interval[@2017-01-01, @2017-12-31], Interval[@2018-01-01, @2018-12-31] }\ndefine TestTwentySevenMonthEnrollmentPeriods: &quot;Enrollment Periods&quot;(TestTwentySevenMonthParticipationPeriod)\ndefine TestTwentySevenMonthPass: TestTwentySevenMonthEnrollmentPeriods = TestExpectedTwentySevenMonthEnrollmentPeriods\n\ndefine TestThreeYearParticipationPeriod: Interval[@2016-01-01, @2018-12-31]\ndefine TestExpectedThreeYearEnrollmentPeriods: { Interval[@2016-01-01, @2016-12-31], Interval[@2017-01-01, @2017-12-31], Interval[@2018-01-01, @2018-12-31] }\ndefine TestThreeYearEnrollmentPeriods: &quot;Enrollment Periods&quot;(TestThreeYearParticipationPeriod)\ndefine TestThreeYearPass: TestThreeYearEnrollmentPeriods = TestExpectedThreeYearEnrollmentPeriods\n\ndefine TestTwoYearParticipationPeriod: Interval[@2017-01-01, @2018-12-31]\ndefine TestExpectedTwoYearEnrollmentPeriods: { Interval[@2017-01-01, @2017-12-31], Interval[@2018-01-01, @2018-12-31] }\ndefine TestTwoYearEnrollmentPeriods: &quot;Enrollment Periods&quot;(TestTwoYearParticipationPeriod)\ndefine TestTwoYearPass: TestTwoYearEnrollmentPeriods = TestExpectedTwoYearEnrollmentPeriods\n\ndefine TestOneYearParticipationPeriod: Interval[@2018-01-01, @2018-12-31]\ndefine TestExpectedOneYearEnrollmentPeriods: { Interval[@2018-01-01, @2018-12-31] }\ndefine TestOneYearEnrollmentPeriods: &quot;Enrollment Periods&quot;(TestOneYearParticipationPeriod)\ndefine TestOneYearPass: TestOneYearEnrollmentPeriods = TestExpectedOneYearEnrollmentPeriods\n\ndefine TestNineMonthParticipationPeriod: Interval[@2018-03-01, @2018-12-31]\ndefine TestExpectedNineMonthEnrollmentPeriods: { Interval[@2018-03-01, @2018-12-31] }\ndefine TestNineMonthEnrollmentPeriods: &quot;Enrollment Periods&quot;(TestNineMonthParticipationPeriod)\ndefine TestNineMonthPass: TestNineMonthEnrollmentPeriods = TestExpectedNineMonthEnrollmentPeriods\n*/\n\n/*\nReturns the periods during which the patient had coverage during the given participation period\n*/\ndefine function &quot;Participation In Period&quot;(ParticipationPeriod Interval&lt;DateTime&gt;):\n\tcollapse (\n\t\tParticipation P\n\t\t\twhere P.period overlaps ParticipationPeriod\n\t\t\treturn all P.period intersect ParticipationPeriod\n\t)\n\n/*\nReturns the number of gap days in the given coverage periods, allowing only one gap.\nIf there is more than one gap, returns the maximum Integer\n*/\ndefine function &quot;Gap Days In Period&quot;(ParticipationPeriod Interval&lt;DateTime&gt;, Periods List&lt;Interval&lt;DateTime&gt;&gt;):\n\t\tcase Count(Periods)\n\t\t\twhen 1 then\n\t\t\t  if Periods[0] starts day of ParticipationPeriod then\n\t\t\t\t  difference in days between end of Periods[0] and end of ParticipationPeriod\n\t\t\t  else if Periods[0] ends day of ParticipationPeriod then\n\t\t\t\t  difference in days between start of ParticipationPeriod and start of Periods[0]\n\t\t\t  else\n\t\t\t\t  maximum Integer\n\t\t\twhen 2 then\n\t\t\t  if Periods[0] starts day of ParticipationPeriod and Periods[1] ends day of ParticipationPeriod then\n\t\t\t\t  difference in days between end of Periods[0] and start of Periods[1]\n\t\t\t  else\n\t\t\t\t  maximum Integer\n\t\t\telse\n\t\t\t  maximum Integer\n\t\tend\n\n/*\n//Tests:\ndefine TestParticipationPeriod: Interval[@2017-01-01, @2017-12-31]\ndefine Test1CoveragePeriods: { Interval[@2017-01-01, @2017-12-31] }\ndefine Test2CoveragePeriods: { Interval[@2017-01-01, @2017-12-15] }\ndefine Test3CoveragePeriods: { Interval[@2017-01-15, @2017-12-31] }\ndefine Test4CoveragePeriods: { Interval[@2017-01-01, @2017-11-15] }\ndefine Test5CoveragePeriods: { Interval[@2017-02-15, @2017-12-31] }\ndefine Test6CoveragePeriods: { Interval[@2017-01-01, @2017-10-15] }\ndefine Test7CoveragePeriods: { Interval[@2017-03-15, @2017-12-31] }\ndefine Test8CoveragePeriods: { Interval[@2017-01-15, @2017-11-15] }\ndefine Test9CoveragePeriods: { Interval[@2017-01-01, @2017-01-14], Interval[@2017-02-15, @2017-12-31] }\ndefine Test10CoveragePeriods: { Interval[@2017-01-01, @2017-01-14], Interval[@2017-03-15, @2017-12-31] }\ndefine Test11CoveragePeriods: { Interval[@2017-01-01, @2017-01-14], Interval[@2017-02-15, @2017-06-14], Interval[@2017-07-15, @2017-12-31] }\ndefine Test1CoverageGap: &quot;Gap Days In Period&quot;(TestParticipationPeriod, Test1CoveragePeriods)\ndefine Test2CoverageGap: &quot;Gap Days In Period&quot;(TestParticipationPeriod, Test2CoveragePeriods)\ndefine Test3CoverageGap: &quot;Gap Days In Period&quot;(TestParticipationPeriod, Test3CoveragePeriods)\ndefine Test4CoverageGap: &quot;Gap Days In Period&quot;(TestParticipationPeriod, Test4CoveragePeriods)\ndefine Test5CoverageGap: &quot;Gap Days In Period&quot;(TestParticipationPeriod, Test5CoveragePeriods)\ndefine Test6CoverageGap: &quot;Gap Days In Period&quot;(TestParticipationPeriod, Test6CoveragePeriods)\ndefine Test7CoverageGap: &quot;Gap Days In Period&quot;(TestParticipationPeriod, Test7CoveragePeriods)\ndefine Test8CoverageGap: &quot;Gap Days In Period&quot;(TestParticipationPeriod, Test8CoveragePeriods)\ndefine Test9CoverageGap: &quot;Gap Days In Period&quot;(TestParticipationPeriod, Test9CoveragePeriods)\ndefine Test10CoverageGap: &quot;Gap Days In Period&quot;(TestParticipationPeriod, Test10CoveragePeriods)\ndefine Test11CoverageGap: &quot;Gap Days In Period&quot;(TestParticipationPeriod, Test11CoveragePeriods)\ndefine Test1ExpectedGap: 0\ndefine Test2ExpectedGap: 16\ndefine Test3ExpectedGap: 14\ndefine Test4ExpectedGap: 46\ndefine Test5ExpectedGap: 45\ndefine Test6ExpectedGap: 77\ndefine Test7ExpectedGap: 73\ndefine Test8ExpectedGap: maximum Integer\ndefine Test9ExpectedGap: 32\ndefine Test10ExpectedGap: 60\ndefine Test11ExpectedGap: maximum Integer\n*/\n\ndefine function &quot;Is Continuously Enrolled In Period&quot;(EnrollmentPeriod Interval&lt;DateTime&gt;, AllowedGapDays Integer):\n\t&quot;Gap Days In Period&quot;(EnrollmentPeriod, &quot;Participation In Period&quot;(EnrollmentPeriod)) &lt;= AllowedGapDays\n</code></pre>\r\n                    \r\n                    \r\n                </td>\r\n            </tr>\r\n        \r\n    </table>\r\n</div>"
        },
        "version": "1.0.0",
        "name": "ParticipationLogic",
        "status": "active",
        "experimental": true,
        "type": {
          "coding": [
            {
              "system": "http://hl7.org/fhir/codesystem-library-type.html",
              "code": "logic-library"
            }
          ]
        },
        "relatedArtifact": [
          {
            "type": "depends-on",
            "resource": "Library/library-FHIRHelpers"
          }
        ],
        "dataRequirement": [
          {
            "type": "Coverage"
          },
          {
            "type": "Coverage"
          },
          {
            "type": "Coverage"
          },
          {
            "type": "Coverage"
          },
          {
            "type": "Coverage"
          },
          {
            "type": "Coverage"
          }
        ],
        "content": [
          {
            "contentType": "application/elm+xml",
            "data": ""
          },
          {
            "contentType": "text/cql",
            "data": ""
          },
          {
            "contentType": "application/elm+xml",
            "data": ""
          },
          {
            "contentType": "text/cql",
            "data": ""
          }
        ]
      },
      "request": {
        "method": "PUT",
        "url": "Library/library-ParticipationLogic"
      }
    },
    {
      "resource": {
        "resourceType": "Patient",
        "id": "mrp-denom",
        "extension": [
          {
            "url": "http://hl7.org/fhir/us/core/StructureDefinition/us-core-race",
            "valueCodeableConcept": {
              "coding": [
                {
                  "system": "http://hl7.org/fhir/v3/Race",
                  "code": "2056-0",
                  "display": "Black"
                }
              ]
            }
          },
          {
            "url": "http://hl7.org/fhir/us/core/StructureDefinition/us-core-ethnicity",
            "valueCodeableConcept": {
              "coding": [
                {
                  "system": "http://hl7.org/fhir/v3/Ethnicity",
                  "code": "2186-5",
                  "display": "Not Hispanic or Latino"
                }
              ]
            }
          },
          {
            "url": "http://hl7.org/fhir/us/core/StructureDefinition/us-core-religion",
            "valueCodeableConcept": {
              "coding": [
                {
                  "system": "http://hl7.org/fhir/v3/ReligiousAffiliation",
                  "code": "1004",
                  "display": "Agnosticism"
                }
              ]
            }
          }
        ],
        "identifier": [
          {
            "use": "official",
            "type": {
              "coding": [
                {
                  "system": "http://hl7.org/fhir/identifier-type",
                  "code": "SB",
                  "display": "Social Beneficiary Identifier"
                }
              ],
              "text": "US Social Security Number"
            },
            "system": "http://hl7.org/fhir/sid/us-ssn",
            "value": "000002668"
          }
        ],
        "active": true,
        "name": [
          {
            "family": "Everywoman",
            "given": [
              "Eve",
              "Veronica"
            ]
          }
        ],
        "telecom": [
          {
            "system": "phone",
            "value": "901-555-5864",
            "use": "home"
          },
          {
            "system": "phone",
            "value": "901-555-9891",
            "use": "mobile"
          }
        ],
        "gender": "female",
        "birthDate": "1999-05-21",
        "address": [
          {
            "use": "home",
            "type": "postal",
            "line": [
              "666 Eden Circle"
            ],
            "city": "Boise",
            "district": "Ada County",
            "state": "ID",
            "postalCode": "83701"
          }
        ]
      },
      "request": {
        "method": "PUT",
        "url": "Patient/mrp-denom"
      }
    },
    {
      "resource": {
        "resourceType": "Library",
        "id": "library-MRPFHIR",
        "text": {
          "status": "generated",
          "div": "<div xmlns=\"http://www.w3.org/1999/xhtml\"><table class=\"grid dict\"><tr><th scope=\"row\"><b>Id: </b></th><td style=\"padding-left: 25px; padding-right: 25px;\">library-MRPFHIR</td></tr><tr><th scope=\"row\"><b>Type: </b></th><td style=\"padding-right: 25px;\"> logic-library </td></tr><tr><th scope=\"row\"><b>Version: </b></th><td style=\"padding-left: 25px; padding-right: 25px;\">1.0.000</td></tr><tr><th scope=\"row\"><b>Status: </b></th><td style=\"padding-left: 25px; padding-right: 25px;\">active</td></tr><tr style=\"vertical-align: top;\"><th rowspan=\"3\" scope=\"row\"><b>Related: </b></th><td style=\"padding-left: 25px; padding-right: 25px;\"><p style=\"margin-bottom: 5px;\"><b>type: </b><span>depends-on</span></p><p style=\"margin-bottom: 5px;\"><b>Resource: </b><br/><span>Library/library-FHIRHelpers</span></p></td></tr><tr style=\"vertical-align: top;\"><td style=\"padding-left: 25px; padding-right: 25px;\"><p style=\"margin-bottom: 5px;\"><b>type: </b><span>depends-on</span></p><p style=\"margin-bottom: 5px;\"><b>Resource: </b><br/><span>Library/library-NCQACommonLogic</span></p></td></tr><tr style=\"vertical-align: top;\"><td style=\"padding-left: 25px; padding-right: 25px;\"><p style=\"margin-bottom: 5px;\"><b>type: </b><span>depends-on</span></p><p style=\"margin-bottom: 5px;\"><b>Resource: </b><br/><span>Library/library-ParticipationLogic</span></p></td></tr><tr style=\"vertical-align: top;\"><th rowspan=\"5\" scope=\"row\"><b>Data Requirements: </b></th><td style=\"padding-left: 25px; padding-right: 25px;\"><div xmlns=\"http://www.w3.org/1999/xhtml\"><p style=\"margin-bottom: 5px;\"><b>type: </b><span>Encounter</span></p><p style=\"margin-bottom: 5px;\"><b>code filter:</b><br/><span style=\"padding-left: 25px;\"><b>path: </b><span>type</span></span><br/><span style=\"padding-left: 25px;\"><b>valueset: </b><span>Encounter Inpatient</span></span></p></div></td></tr><tr style=\"vertical-align: top;\"><td style=\"padding-left: 25px; padding-right: 25px;\"><div xmlns=\"http://www.w3.org/1999/xhtml\"><p style=\"margin-bottom: 5px;\"><b>type: </b><span>Encounter</span></p><p style=\"margin-bottom: 5px;\"><b>code filter:</b><br/><span style=\"padding-left: 25px;\"><b>path: </b><span>type</span></span><br/><span style=\"padding-left: 25px;\"><b>valueset: </b><span>Encounter Inpatient</span></span></p></div></td></tr><tr style=\"vertical-align: top;\"><td style=\"padding-left: 25px; padding-right: 25px;\"><div xmlns=\"http://www.w3.org/1999/xhtml\"><p style=\"margin-bottom: 5px;\"><b>type: </b><span>Practitioner</span></p></div></td></tr><tr style=\"vertical-align: top;\"><td style=\"padding-left: 25px; padding-right: 25px;\"><div xmlns=\"http://www.w3.org/1999/xhtml\"><p style=\"margin-bottom: 5px;\"><b>type: </b><span>Task</span></p><p style=\"margin-bottom: 5px;\"><b>code filter:</b><br/><span style=\"padding-left: 25px;\"><b>path: </b><span>code</span></span><br/><span style=\"padding-left: 25px;\"><b>valueset: </b><span>http://ncqa.org/fhir/hedis/ValueSet/hedismedrecvalueset</span></span></p></div></td></tr><tr style=\"vertical-align: top;\"><td style=\"padding-left: 25px; padding-right: 25px;\"><div xmlns=\"http://www.w3.org/1999/xhtml\"><p style=\"margin-bottom: 5px;\"><b>type: </b><span>Observation</span></p><p style=\"margin-bottom: 5px;\"><b>code filter:</b><br/><span style=\"padding-left: 25px;\"><b>path: </b><span>code</span></span><br/><span style=\"padding-left: 25px;\"><b>valueset: </b><span>http://ncqa.org/fhir/hedis/ValueSet/hedismedrecvalueset</span></span></p></div></td></tr><tr style=\"vertical-align: top;\"><th scope=\"row\"><b>Content: </b></th><td style=\"padding-left: 25px; padding-right: 25px;\"><b>type: </b><span>text/cql</span></td></tr><tr><td colspan=\"2\" style=\"padding-left: 25px; padding-right: 25px;\"><pre><code class=\"language-cql\">library MRPFHIR version '1.0.000'\n\n/*\nMedication reconciliation postdischarge (MRP)\n*/\n\nusing FHIR version '4.0.0'\n\ninclude FHIRHelpers version '4.0.0' called FHIRHelpers\ninclude NCQACommonLogic version '3.10.000' called Common\ninclude ParticipationLogic version '1.0.0' called Participation\n\n// Prescribing Practitioner, Clinical Pharmacist or Registered Nurse\n// http://hl7.org/fhir/v2/0360/2.7/index.html { CANP, CNP, CNM, CNS, CRN, DO, MD, NP, PharmD, RN, RPH, PA, FPNP, PN }\nvalueset &quot;Valid Medication Reconciliation Performer Qualifications&quot;: 'http://ncqa.org/fhir/hedis/ValueSet/hedis-med-rec-practitioner'\nvalueset &quot;Medication Reconciliation Value Set&quot;: 'http://ncqa.org/fhir/hedis/ValueSet/hedismedrecvalueset' // HEDIS IG\n\nparameter &quot;Measurement Period&quot; default Interval[@2019-01-01T00:00, @2020-01-01T00:00)\n\ncontext Patient\n\ndefine &quot;Encounters Ending Before December 2nd&quot;:\n  [Encounter: Common.&quot;Encounter Inpatient&quot;] E1\n    where E1.status ~ 'finished'\n     and E1.period ends during Interval[start of &quot;Measurement Period&quot;, end of &quot;Measurement Period&quot; - 30 days]\n\ndefine &quot;Encounters in Measurement Period&quot;:\n  [Encounter: Common.&quot;Encounter Inpatient&quot;] E2\n    where E2.status ~ 'finished'\n     and E2.period ends during Interval[start of &quot;Measurement Period&quot;, end of &quot;Measurement Period&quot;]\n\n// Consider expressing this using a without, since in the case that there is no encounter after E1, this won't return\ndefine &quot;Encounters without 30 Day Readmission&quot;:\n\t&quot;Encounters Ending Before December 2nd&quot; E1\n\t   with &quot;Encounters in Measurement Period&quot; E2\n\t   such that difference in days between start of E2.period and start of E1.period &gt; 30\n\ndefine &quot;Initial Population&quot;:\n  &quot;Encounters without 30 Day Readmission&quot; E\n    where AgeInYearsAt(end of &quot;Measurement Period&quot;) &gt;= 18\n    and Participation.&quot;Is Enrolled&quot;(Participation.&quot;Medicare Product&quot;,\n\t\t  end of E.period + 30 days, Interval[start of E.period, end of E.period + 30 days], 0)\n\t\tand not Common.&quot;Has Hospice&quot;\n\ndefine Denominator:\n  &quot;Initial Population&quot;\n\ndefine Practitioners:\n  [Practitioner] P\n    where P.active //This indicates the practitioner record was not created in error\n      and exists (P.qualification Q where Q.code in &quot;Valid Medication Reconciliation Performer Qualifications&quot;) //Practitioner is qualified to reconcile medications\n\ndefine Tasks:\n  [Task: &quot;Medication Reconciliation Value Set&quot;] T\n    where T.intent = 'order'\n      and T.status = 'completed'\n      and exists (Practitioners P where EndsWith(T.owner.reference, P.id))\n\ndefine Observations:\n  [Observation:  &quot;Medication Reconciliation Value Set&quot;] O\n    with Practitioners P\n    such that O.status in { 'final', 'amended', 'corrected' }\n      and exists (O.performer OP where EndsWith(OP.reference, P.id))\n\ndefine Numerator:\n  &quot;Encounters without 30 Day Readmission&quot; E\n   where exists (Tasks T where T.executionPeriod during Interval[E.period.&quot;end&quot;, E.period.&quot;end&quot; + 30 days])\n     or exists (Observations O where O.effective as dateTime during Interval[E.period.&quot;end&quot;, E.period.&quot;end&quot; + 30 days])\n\ndefine &quot;Denominator Exclusion&quot;: false\n</code></pre>\r\n                    \r\n                    \r\n                </td>\r\n            </tr>\r\n        \r\n    </table>\r\n</div>"
        },
        "version": "1.0.000",
        "name": "MRPFHIR",
        "status": "active",
        "experimental": true,
        "type": {
          "coding": [
            {
              "system": "http://hl7.org/fhir/codesystem-library-type.html",
              "code": "logic-library"
            }
          ]
        },
        "relatedArtifact": [
          {
            "type": "depends-on",
            "resource": "Library/library-FHIRHelpers"
          },
          {
            "type": "depends-on",
            "resource": "Library/library-NCQACommonLogic"
          },
          {
            "type": "depends-on",
            "resource": "Library/library-ParticipationLogic"
          }
        ],
        "dataRequirement": [
          {
            "type": "Encounter",
            "codeFilter": [
              {
                "path": "type",
                "valueSet": "Encounter Inpatient"
              }
            ]
          },
          {
            "type": "Encounter",
            "codeFilter": [
              {
                "path": "type",
                "valueSet": "Encounter Inpatient"
              }
            ]
          },
          {
            "type": "Practitioner"
          },
          {
            "type": "Task",
            "codeFilter": [
              {
                "path": "code",
                "valueSet": "http://ncqa.org/fhir/hedis/ValueSet/hedismedrecvalueset"
              }
            ]
          },
          {
            "type": "Observation",
            "codeFilter": [
              {
                "path": "code",
                "valueSet": "http://ncqa.org/fhir/hedis/ValueSet/hedismedrecvalueset"
              }
            ]
          }
        ],
        "content": [
          {
            "contentType": "application/elm+xml",
            "data": ""
          },
          {
            "contentType": "text/cql",
            "data": ""
          },
          {
            "contentType": "application/elm+xml",
            "data": ""
          },
          {
            "contentType": "text/cql",
            "data": ""
          }
        ]
      },
      "request": {
        "method": "PUT",
        "url": "Library/library-MRPFHIR"
      }
    },
    {
      "resource": {
        "resourceType": "Encounter",
        "id": "mrp-numer-e1",
        "status": "finished",
        "class": {
          "system": "http://hl7.org/fhir/v3/ActCode",
          "code": "IMP",
          "display": "inpatient encounter"
        },
        "type": [
          {
            "coding": [
              {
                "system": "http://snomed.info/sct",
                "code": "32485007",
                "display": "Hospital admission"
              }
            ]
          }
        ],
        "subject": {
          "reference": "Patient/mrp-numer",
          "display": "Eve Veronica Everywoman"
        },
        "participant": [
          {
            "period": {
              "start": "2019-09-30T00:00:00-04:00",
              "end": "2019-09-30T14:19:00-04:00"
            },
            "individual": {
              "reference": "Practitioner/mrp-numer",
              "display": "Stanley Jason Garrett MD"
            }
          }
        ],
        "period": {
          "start": "2019-09-30T00:00:00-04:00",
          "end": "2019-09-30T14:19:00-04:00"
        },
        "hospitalization": {
          "dischargeDisposition": {
            "coding": [
              {
                "system": "http://hl7.org/fhir/discharge-disposition",
                "code": "home",
                "display": "Home"
              }
            ]
          }
        },
        "location": [
          {
            "location": {
              "reference": "Location/Location-1001",
              "display": "Windward General Hospital"
            }
          }
        ],
        "serviceProvider": {
          "reference": "Organization/Organization-1001",
          "display": "Windward General Hospital"
        }
      },
      "request": {
        "method": "PUT",
        "url": "Encounter/mrp-numer-e1"
      }
    },
    {
      "resource": {
        "resourceType": "Coverage",
        "id": "mrp-numer",
        "text": {
          "status": "generated"
        },
        "identifier": [
          {
            "system": "http://benefitsinc.com/certificate",
            "value": "12345"
          }
        ],
        "status": "active",
        "type": {
          "coding": [
            {
              "system": "http://hl7.org/fhir/v3/ActCode",
              "code": "medicare",
              "display": "Medicare Coverage"
            }
          ]
        },
        "policyHolder": {
          "reference": "Patient/mrp-numer"
        },
        "subscriber": {
          "reference": "Patient/mrp-numer"
        },
        "beneficiary": {
          "reference": "Patient/mrp-numer"
        },
        "dependent": "0",
        "relationship": {
          "coding": [
            {
              "code": "self"
            }
          ]
        },
        "period": {
          "start": "2017-01-01",
          "end": "2020-01-01"
        },
        "payor": [
          {
            "reference": "Organization/Organization-1106"
          }
        ],
        "class": [
          {
            "type": {
              "coding": [
                {
                  "system": "http://terminology.hl7.org/CodeSystem/coverage-class",
                  "code": "group"
                }
              ]
            },
            "value": "CBI35",
            "name": "Corporate Baker's Inc. Local #35"
          },
          {
            "type": {
              "coding": [
                {
                  "system": "http://terminology.hl7.org/CodeSystem/coverage-class",
                  "code": "subgroup"
                }
              ]
            },
            "value": "123",
            "name": "Trainee Part-time Benefits"
          },
          {
            "type": {
              "coding": [
                {
                  "system": "http://terminology.hl7.org/CodeSystem/coverage-class",
                  "code": "plan"
                }
              ]
            },
            "value": "B37FC",
            "name": "Full Coverage: Medical, Dental, Pharmacy, Vision, EHC"
          },
          {
            "type": {
              "coding": [
                {
                  "system": "http://terminology.hl7.org/CodeSystem/coverage-class",
                  "code": "subplan"
                }
              ]
            },
            "value": "P7",
            "name": "Includes afterlife benefits"
          },
          {
            "type": {
              "coding": [
                {
                  "system": "http://terminology.hl7.org/CodeSystem/coverage-class",
                  "code": "class"
                }
              ]
            },
            "value": "SILVER",
            "name": "Silver: Family Plan spouse only"
          },
          {
            "type": {
              "coding": [
                {
                  "system": "http://terminology.hl7.org/CodeSystem/coverage-class",
                  "code": "subclass"
                }
              ]
            },
            "value": "Tier2",
            "name": "Low deductable, max $20 copay"
          }
        ],
        "order": 9
      },
      "request": {
        "method": "PUT",
        "url": "Coverage/mrp-numer"
      }
    },
    {
      "resource": {
        "resourceType": "Encounter",
        "id": "mrp-numer-e2",
        "status": "finished",
        "class": {
          "system": "http://hl7.org/fhir/v3/ActCode",
          "code": "IMP",
          "display": "inpatient encounter"
        },
        "type": [
          {
            "coding": [
              {
                "system": "http://snomed.info/sct",
                "code": "32485007",
                "display": "Hospital admission"
              }
            ]
          }
        ],
        "subject": {
          "reference": "Patient/mrp-numer",
          "display": "Eve Veronica Everywoman"
        },
        "participant": [
          {
            "period": {
              "start": "2019-11-30T00:00:00-04:00",
              "end": "2019-11-30T14:19:00-04:00"
            },
            "individual": {
              "reference": "Practitioner/mrp-numer",
              "display": "Stanley Jason Garrett MD"
            }
          }
        ],
        "period": {
          "start": "2019-11-30T00:00:00-04:00",
          "end": "2019-11-30T14:19:00-04:00"
        },
        "hospitalization": {
          "dischargeDisposition": {
            "coding": [
              {
                "system": "http://hl7.org/fhir/discharge-disposition",
                "code": "home",
                "display": "Home"
              }
            ]
          }
        },
        "location": [
          {
            "location": {
              "reference": "Location/Location-1001",
              "display": "Windward General Hospital"
            }
          }
        ],
        "serviceProvider": {
          "reference": "Organization/Organization-1001",
          "display": "Windward General Hospital"
        }
      },
      "request": {
        "method": "PUT",
        "url": "Encounter/mrp-numer-e2"
      }
    },
    {
      "resource": {
        "resourceType": "ValueSet",
        "id": "hedismedrecvalueset",
        "meta": {
          "versionId": "1",
          "lastUpdated": "2018-06-01T16:03:13.000+00:00"
        },
        "url": "http://ncqa.org/fhir/hedis/ValueSet/hedismedrecvalueset",
        "name": "HEDISMedRec",
        "status": "draft",
        "description": "SNOMED Procedure Codes indicating medication reconciliation",
        "compose": {
          "include": [
            {
              "system": "http://snomed.info/sct",
              "concept": [
                {
                  "code": "430193006",
                  "display": "Medication Reconciliation (procedure)"
                }
              ]
            }
          ]
        }
      },
      "request": {
        "method": "PUT",
        "url": "ValueSet/hedismedrecvalueset/_history/1"
      }
    },
    {
      "resource": {
        "resourceType": "ValueSet",
        "id": "2.16.840.1.113762.1.4.1108.15",
        "url": "http://cts.nlm.nih.gov/fhir/ValueSet/2.16.840.1.113762.1.4.1108.15",
        "identifier": [
          {
            "system": "urn:ietf:rfc:3986",
            "value": "2.16.840.1.113762.1.4.1108.15"
          }
        ],
        "version": "20170504",
        "name": "Hospicecareambulatory",
        "title": "Hospice care ambulatory",
        "status": "active",
        "publisher": "NLM",
        "compose": {
          "include": [
            {
              "system": "http://snomed.info/sct",
              "version": "2018-03",
              "concept": [
                {
                  "code": "385763009",
                  "display": "Hospice care (regime/therapy)"
                },
                {
                  "code": "385765002",
                  "display": "Hospice care management (procedure)"
                }
              ]
            }
          ]
        }
      },
      "request": {
        "method": "PUT",
        "url": "ValueSet/2.16.840.1.113762.1.4.1108.15"
      }
    },
    {
      "resource": {
        "resourceType": "Practitioner",
        "id": "mrp-numer",
        "identifier": [
          {
            "use": "official",
            "type": {
              "coding": [
                {
                  "system": "http://hl7.org/fhir/identifier-type",
                  "code": "SB",
                  "display": "Social Beneficiary Identifier"
                }
              ],
              "text": "US Social Security Number"
            },
            "system": "http://hl7.org/fhir/sid/us-ssn",
            "value": "000002519"
          },
          {
            "use": "official",
            "type": {
              "coding": [
                {
                  "system": "http://hl7.org/fhir/v2/0203",
                  "code": "PRN",
                  "display": "Provider number"
                }
              ],
              "text": "US National Provider Identifier"
            },
            "system": "http://hl7.org/fhir/sid/us-npi",
            "value": "999992519"
          }
        ],
        "active": true,
        "name": [
          {
            "family": "Garrett",
            "given": [
              "Stanley",
              "Jason"
            ],
            "suffix": [
              "MD"
            ]
          }
        ],
        "telecom": [
          {
            "system": "phone",
            "value": "616-555-2401",
            "use": "work"
          },
          {
            "system": "phone",
            "value": "616-555-7849",
            "use": "mobile"
          }
        ],
        "address": [
          {
            "use": "work",
            "type": "postal",
            "line": [
              "352 NW Cedar Drive",
              "#29"
            ],
            "city": "Northport",
            "district": "Leelanau County",
            "state": "MI",
            "postalCode": "49670"
          }
        ],
        "gender": "male",
        "birthDate": "1965-09-14",
        "qualification": [
          {
            "code": {
              "coding": [
                {
                  "system": "http://hl7.org/fhir/v2/0360/2.7",
                  "code": "MD"
                }
              ],
              "text": "Qualification, Doctor of Medicine"
            }
          }
        ]
      },
      "request": {
        "method": "PUT",
        "url": "Practitioner/mrp-numer"
      }
    },
    {
      "resource": {
        "resourceType": "Practitioner",
        "id": "mrp-out",
        "identifier": [
          {
            "use": "official",
            "type": {
              "coding": [
                {
                  "system": "http://hl7.org/fhir/identifier-type",
                  "code": "SB",
                  "display": "Social Beneficiary Identifier"
                }
              ],
              "text": "US Social Security Number"
            },
            "system": "http://hl7.org/fhir/sid/us-ssn",
            "value": "000002519"
          },
          {
            "use": "official",
            "type": {
              "coding": [
                {
                  "system": "http://hl7.org/fhir/v2/0203",
                  "code": "PRN",
                  "display": "Provider number"
                }
              ],
              "text": "US National Provider Identifier"
            },
            "system": "http://hl7.org/fhir/sid/us-npi",
            "value": "999992519"
          }
        ],
        "active": true,
        "name": [
          {
            "family": "Garrett",
            "given": [
              "Stanley",
              "Jason"
            ],
            "suffix": [
              "MD"
            ]
          }
        ],
        "telecom": [
          {
            "system": "phone",
            "value": "616-555-2401",
            "use": "work"
          },
          {
            "system": "phone",
            "value": "616-555-7849",
            "use": "mobile"
          }
        ],
        "address": [
          {
            "use": "work",
            "type": "postal",
            "line": [
              "352 NW Cedar Drive",
              "#29"
            ],
            "city": "Northport",
            "district": "Leelanau County",
            "state": "MI",
            "postalCode": "49670"
          }
        ],
        "gender": "male",
        "birthDate": "1965-09-14",
        "qualification": [
          {
            "code": {
              "coding": [
                {
                  "system": "http://hl7.org/fhir/v2/0360/2.7",
                  "code": "MD"
                }
              ],
              "text": "Qualification, Doctor of Medicine"
            }
          }
        ]
      },
      "request": {
        "method": "PUT",
        "url": "Practitioner/mrp-out"
      }
    },
    {
      "resource": {
        "resourceType": "ValueSet",
        "id": "2.16.840.1.113883.3.666.5.307",
        "url": "http://cts.nlm.nih.gov/fhir/ValueSet/2.16.840.1.113883.3.666.5.307",
        "identifier": [
          {
            "system": "urn:ietf:rfc:3986",
            "value": "2.16.840.1.113883.3.666.5.307"
          }
        ],
        "version": "20170504",
        "name": "EncounterInpatient",
        "title": "Encounter Inpatient",
        "status": "active",
        "publisher": "NLM",
        "compose": {
          "include": [
            {
              "system": "http://snomed.info/sct",
              "version": "2018-03",
              "concept": [
                {
                  "code": "183452005",
                  "display": "Emergency hospital admission (procedure)"
                },
                {
                  "code": "32485007",
                  "display": "Hospital admission (procedure)"
                },
                {
                  "code": "8715000",
                  "display": "Hospital admission, elective (procedure)"
                }
              ]
            }
          ]
        }
      },
      "request": {
        "method": "PUT",
        "url": "ValueSet/2.16.840.1.113883.3.666.5.307"
      }
    },
    {
      "resource": {
        "resourceType": "Observation",
        "id": "mrp-numer",
        "status": "final",
        "code": {
          "coding": [
            {
              "system": "http://snomed.info/sct",
              "code": "430193006"
            }
          ]
        },
        "subject": {
          "reference": "Patient/mrp-numer"
        },
        "effectiveDateTime": "2019-12-02T14:19:00-04:00",
        "performer": [
          {
            "reference": "Practitioner/mrp-numer"
          }
        ],
        "valueQuantity": {
          "value": 5.0
        }
      },
      "request": {
        "method": "PUT",
        "url": "Observation/mrp-numer"
      }
    },
    {
      "resource": {
        "resourceType": "Patient",
        "id": "mrp-numer",
        "extension": [
          {
            "url": "http://hl7.org/fhir/us/core/StructureDefinition/us-core-race",
            "valueCodeableConcept": {
              "coding": [
                {
                  "system": "http://hl7.org/fhir/v3/Race",
                  "code": "2056-0",
                  "display": "Black"
                }
              ]
            }
          },
          {
            "url": "http://hl7.org/fhir/us/core/StructureDefinition/us-core-ethnicity",
            "valueCodeableConcept": {
              "coding": [
                {
                  "system": "http://hl7.org/fhir/v3/Ethnicity",
                  "code": "2186-5",
                  "display": "Not Hispanic or Latino"
                }
              ]
            }
          },
          {
            "url": "http://hl7.org/fhir/us/core/StructureDefinition/us-core-religion",
            "valueCodeableConcept": {
              "coding": [
                {
                  "system": "http://hl7.org/fhir/v3/ReligiousAffiliation",
                  "code": "1004",
                  "display": "Agnosticism"
                }
              ]
            }
          }
        ],
        "identifier": [
          {
            "use": "official",
            "type": {
              "coding": [
                {
                  "system": "http://hl7.org/fhir/identifier-type",
                  "code": "SB",
                  "display": "Social Beneficiary Identifier"
                }
              ],
              "text": "US Social Security Number"
            },
            "system": "http://hl7.org/fhir/sid/us-ssn",
            "value": "000002668"
          }
        ],
        "active": true,
        "name": [
          {
            "family": "Everywoman",
            "given": [
              "Eve",
              "Veronica"
            ]
          }
        ],
        "telecom": [
          {
            "system": "phone",
            "value": "901-555-5864",
            "use": "home"
          },
          {
            "system": "phone",
            "value": "901-555-9891",
            "use": "mobile"
          }
        ],
        "gender": "female",
        "birthDate": "1999-05-21",
        "address": [
          {
            "use": "home",
            "type": "postal",
            "line": [
              "666 Eden Circle"
            ],
            "city": "Boise",
            "district": "Ada County",
            "state": "ID",
            "postalCode": "83701"
          }
        ]
      },
      "request": {
        "method": "PUT",
        "url": "Patient/mrp-numer"
      }
    },
    {
      "resource": {
        "resourceType": "Encounter",
        "id": "mrp-denom-e1",
        "status": "finished",
        "class": {
          "system": "http://hl7.org/fhir/v3/ActCode",
          "code": "IMP",
          "display": "inpatient encounter"
        },
        "type": [
          {
            "coding": [
              {
                "system": "http://snomed.info/sct",
                "code": "32485007",
                "display": "Hospital admission"
              }
            ]
          }
        ],
        "subject": {
          "reference": "Patient/mrp-denom",
          "display": "Eve Veronica Everywoman"
        },
        "participant": [
          {
            "period": {
              "start": "2019-09-30T00:00:00-04:00",
              "end": "2019-09-30T14:19:00-04:00"
            },
            "individual": {
              "reference": "Practitioner/mrp-denom",
              "display": "Stanley Jason Garrett MD"
            }
          }
        ],
        "period": {
          "start": "2019-09-30T00:00:00-04:00",
          "end": "2019-09-30T14:19:00-04:00"
        },
        "hospitalization": {
          "dischargeDisposition": {
            "coding": [
              {
                "system": "http://hl7.org/fhir/discharge-disposition",
                "code": "home",
                "display": "Home"
              }
            ]
          }
        },
        "location": [
          {
            "location": {
              "reference": "Location/Location-1001",
              "display": "Windward General Hospital"
            }
          }
        ],
        "serviceProvider": {
          "reference": "Organization/Organization-1001",
          "display": "Windward General Hospital"
        }
      },
      "request": {
        "method": "PUT",
        "url": "Encounter/mrp-denom-e1"
      }
    },
    {
      "resource": {
        "resourceType": "Encounter",
        "id": "mrp-denom-e2",
        "status": "finished",
        "class": {
          "system": "http://hl7.org/fhir/v3/ActCode",
          "code": "IMP",
          "display": "inpatient encounter"
        },
        "type": [
          {
            "coding": [
              {
                "system": "http://snomed.info/sct",
                "code": "32485007",
                "display": "Hospital admission"
              }
            ]
          }
        ],
        "subject": {
          "reference": "Patient/mrp-denom",
          "display": "Eve Veronica Everywoman"
        },
        "participant": [
          {
            "period": {
              "start": "2019-11-30T00:00:00-04:00",
              "end": "2019-11-30T14:19:00-04:00"
            },
            "individual": {
              "reference": "Practitioner/mrp-denom",
              "display": "Stanley Jason Garrett MD"
            }
          }
        ],
        "period": {
          "start": "2019-11-30T00:00:00-04:00",
          "end": "2019-11-30T14:19:00-04:00"
        },
        "hospitalization": {
          "dischargeDisposition": {
            "coding": [
              {
                "system": "http://hl7.org/fhir/discharge-disposition",
                "code": "home",
                "display": "Home"
              }
            ]
          }
        },
        "location": [
          {
            "location": {
              "reference": "Location/Location-1001",
              "display": "Windward General Hospital"
            }
          }
        ],
        "serviceProvider": {
          "reference": "Organization/Organization-1001",
          "display": "Windward General Hospital"
        }
      },
      "request": {
        "method": "PUT",
        "url": "Encounter/mrp-denom-e2"
      }
    }
  ]
}