{
  "resourceType": "Bundle",
  "id": "Gertrude-Reid-Casey-3569-Encounter-1888",
  "type": "transaction",
  "entry": [
    {
      "fullUrl": "http://localhost:8080/cqf-ruler/R4/Encounter/Encounter-1888",
      "resource": {
        "resourceType": "Encounter",
        "id": "Encounter-1888",
        "text": {
          "status": "generated",
          "div": "<div xmlns=\"http://www.w3.org/1999/xhtml\">This is a simple example with only plain text</div>"
        },
        "extension": [
          {
            "url": "http://mihin.org/extension/copyright",
            "valueString": "Copyright 2014-2019 Michigan Health Information Network Shared Services. Licensed under the Apache License, Version 2.0 (the 'License'); you may not use this file except in compliance with the License. You may obtain a copy of the License at  http://www.apache.org/licenses/LICENSE-2.0.  Unless required by applicable law or agreed to in writing, software distributed under the License is distributed on an 'AS IS' BASIS, WITHOUT WARRANTIES OR CONDITIONS OF ANY KIND, either express or implied. See the License for the specific language governing permissions and limitations under the License."
          }
        ],
        "identifier": [
          {
            "use": "official",
            "value": "2d116d9e-2aeb-4614-8d6f-1b4d708cbb20"
          }
        ],
        "status": "finished",
        "class": {
          "system": "http://hl7.org/fhir/encounter-class",
          "code": "ambulatory",
          "display": "Ambulatory"
        },
        "type": [
          {
            "coding": [
              {
                "system": "http://snomed.info/sct",
                "code": "3391000175108",
                "display": "Combined Office Visits"
              }
            ]
          }
        ],
        "subject": {
          "reference": "Patient/Patient-3569",
          "display": "Gertrude Reid Casey"
        },
        "participant": [
          {
            "type": [
              {
                "coding": [
                  {
                    "system": "http://hl7.org/fhir/v3/ParticipationType",
                    "code": "ATND",
                    "display": "attender"
                  }
                ]
              }
            ],
            "period": {
              "start": "2020-01-08T00:00:00-05:00",
              "end": "2020-01-08T00:00:00-05:00"
            },
            "individual": {
              "reference": "Practitioner/Practitioner-2111",
              "display": "Phillip Ricardo Marks DD"
            }
          }
        ],
        "period": {
          "start": "2020-01-08T00:00:00-05:00",
          "end": "2020-01-08T00:00:00-05:00"
        },
        "location": [
          {
            "location": {
              "reference": "Location/Location-419",
              "display": "EMS Comprehensive Care"
            }
          }
        ],
        "serviceProvider": {
          "display": "EMS Comprehensive Care"
        }
      },
      "request": {
        "method": "PUT",
        "url": "http://localhost:8080/cqf-ruler/R4/Encounter/Encounter-1888"
      }
    },
    {
      "fullUrl": "http://localhost:8080/cqf-ruler/R4/Procedure/Procedure-40759",
      "resource": {
        "resourceType": "Procedure",
        "id": "Procedure-40759",
        "text": {
          "status": "generated",
          "div": "<div xmlns=\"http://www.w3.org/1999/xhtml\">This is a simple example with only plain text</div>"
        },
        "extension": [
          {
            "url": "http://mihin.org/extension/copyright",
            "valueString": "Copyright 2014-2019 Michigan Health Information Network Shared Services. Licensed under the Apache License, Version 2.0 (the 'License'); you may not use this file except in compliance with the License. You may obtain a copy of the License at  http://www.apache.org/licenses/LICENSE-2.0.  Unless required by applicable law or agreed to in writing, software distributed under the License is distributed on an 'AS IS' BASIS, WITHOUT WARRANTIES OR CONDITIONS OF ANY KIND, either express or implied. See the License for the specific language governing permissions and limitations under the License."
          }
        ],
        "identifier": [
          {
            "use": "official",
            "system": "http://mihin.org/fhir/sid/elementId",
            "value": "cfc0457d-b49e-4a26-aea0-a7a6044ff821"
          }
        ],
        "status": "completed",
        "code": {
          "coding": [
            {
              "system": "http://www.ama-assn.org/go/cpt",
              "code": "87624"
            }
          ]
        },
        "subject": {
          "reference": "Patient/Patient-3569",
          "display": "Gertrude Reid Casey"
        },
        "encounter": {
          "reference": "Encounter/Encounter-1888",
          "display": "Ambulatory_Encounter"
        },
        "performedPeriod": {
          "start": "2020-01-08T00:00:00-05:00",
          "end": "2020-01-08T00:00:00-05:00"
        },
        "performer": [
          {
            "actor": {
              "reference": "Practitioner/Practitioner-2111",
              "display": "Phillip Ricardo Marks DD"
            }
          }
        ],
        "location": {
          "reference": "Location/Location-419",
          "display": "EMS Comprehensive Care"
        }
      },
      "request": {
        "method": "PUT",
        "url": "http://localhost:8080/cqf-ruler/R4/Procedure/Procedure-40759"
      }
    },
    {
      "fullUrl": "http://localhost:8080/cqf-ruler/R4/Observation/Observation-40760",
      "resource": {
        "resourceType": "Observation",
        "id": "Observation-40760",
        "text": {
          "status": "generated",
          "div": "<div xmlns=\"http://www.w3.org/1999/xhtml\">This is a simple example with only plain text</div>"
        },
        "extension": [
          {
            "url": "http://mihin.org/extension/copyright",
            "valueString": "Copyright 2014-2019 Michigan Health Information Network Shared Services. Licensed under the Apache License, Version 2.0 (the 'License'); you may not use this file except in compliance with the License. You may obtain a copy of the License at  http://www.apache.org/licenses/LICENSE-2.0.  Unless required by applicable law or agreed to in writing, software distributed under the License is distributed on an 'AS IS' BASIS, WITHOUT WARRANTIES OR CONDITIONS OF ANY KIND, either express or implied. See the License for the specific language governing permissions and limitations under the License."
          }
        ],
        "identifier": [
          {
            "use": "official",
            "system": "http://mihin.org/fhir/sid/elementId",
            "value": "ac786624-368b-4ac0-aead-10631252024e"
          }
        ],
        "status": "final",
        "category": [
          {
            "coding": [
              {
                "system": "http://hl7.org/fhir/observation-category",
                "code": "exam",
                "display": "Exam"
              }
            ]
          }
        ],
        "code": {
          "coding": [
            {
              "system": "http://snomed.info/sct",
              "code": "289829007",
              "display": "Normal uterine cervix (finding)"
            }
          ]
        },
        "subject": {
          "reference": "Patient/Patient-3569",
          "display": "Gertrude Reid Casey"
        },
        "encounter": {
          "reference": "Encounter/Encounter-1888",
          "display": "Ambulatory_Encounter"
        },
        "effectiveDateTime": "2020-01-08T00:00:00-05:00",
        "performer": [
          {
            "reference": "Practitioner/Practitioner-2111",
            "display": "Phillip Ricardo Marks DD"
          }
        ],
        "valueString": "NEGATIVE"
      },
      "request": {
        "method": "PUT",
        "url": "http://localhost:8080/cqf-ruler/R4/Observation/Observation-40760"
      }
    },
    {
      "fullUrl": "http://localhost:8080/cqf-ruler/R4/Observation/Observation-40761",
      "resource": {
        "resourceType": "Observation",
        "id": "Observation-40761",
        "text": {
          "status": "generated",
          "div": "<div xmlns=\"http://www.w3.org/1999/xhtml\">This is a simple example with only plain text</div>"
        },
        "extension": [
          {
            "url": "http://mihin.org/extension/copyright",
            "valueString": "Copyright 2014-2019 Michigan Health Information Network Shared Services. Licensed under the Apache License, Version 2.0 (the 'License'); you may not use this file except in compliance with the License. You may obtain a copy of the License at  http://www.apache.org/licenses/LICENSE-2.0.  Unless required by applicable law or agreed to in writing, software distributed under the License is distributed on an 'AS IS' BASIS, WITHOUT WARRANTIES OR CONDITIONS OF ANY KIND, either express or implied. See the License for the specific language governing permissions and limitations under the License."
          }
        ],
        "identifier": [
          {
            "use": "official",
            "system": "http://mihin.org/fhir/sid/elementId",
            "value": "b461c025-ba2a-4975-8fbb-78c9851f363d"
          }
        ],
        "status": "final",
        "category": [
          {
            "coding": [
              {
                "system": "http://hl7.org/fhir/observation-category",
                "code": "exam",
                "display": "Exam"
              }
            ]
          }
        ],
        "code": {
          "coding": [
            {
              "system": "http://snomed.info/sct",
              "code": "439888000",
              "display": "Abnormal cervical Papanicolaou smear (finding)"
            }
          ]
        },
        "subject": {
          "reference": "Patient/Patient-3569",
          "display": "Gertrude Reid Casey"
        },
        "encounter": {
          "reference": "Encounter/Encounter-1888",
          "display": "Ambulatory_Encounter"
        },
        "effectiveDateTime": "2020-01-08T00:00:00-05:00",
        "performer": [
          {
            "reference": "Practitioner/Practitioner-2111",
            "display": "Phillip Ricardo Marks DD"
          }
        ],
        "valueString": "POSITIVE"
      },
      "request": {
        "method": "PUT",
        "url": "http://localhost:8080/cqf-ruler/R4/Observation/Observation-40761"
      }
    },
    {
      "fullUrl": "http://localhost:8080/cqf-ruler/R4/DiagnosticReport/DiagnosticReport-40762",
      "resource": {
        "resourceType": "DiagnosticReport",
        "id": "DiagnosticReport-40762",
        "text": {
          "status": "generated",
          "div": "<div xmlns=\"http://www.w3.org/1999/xhtml\">This is a simple example with only plain text</div>"
        },
        "extension": [
          {
            "url": "http://mihin.org/extension/copyright",
            "valueString": "Copyright 2014-2019 Michigan Health Information Network Shared Services. Licensed under the Apache License, Version 2.0 (the 'License'); you may not use this file except in compliance with the License. You may obtain a copy of the License at  http://www.apache.org/licenses/LICENSE-2.0.  Unless required by applicable law or agreed to in writing, software distributed under the License is distributed on an 'AS IS' BASIS, WITHOUT WARRANTIES OR CONDITIONS OF ANY KIND, either express or implied. See the License for the specific language governing permissions and limitations under the License."
          }
        ],
        "identifier": [
          {
            "use": "official",
            "system": "http://mihin.org/fhir/sid/elementId",
            "value": "0c0777e6-7171-45ee-b756-a311482e75cb"
          }
        ],
        "status": "final",
        "code": {
          "coding": [
            {
              "system": "https://www.cms.gov/Medicare/Coding/MedHCPCSGenInfo",
              "code": "G0144"
            }
          ]
        },
        "subject": {
          "reference": "Patient/Patient-3569",
          "display": "Gertrude Reid Casey"
        },
        "encounter": {
          "reference": "Encounter/Encounter-1888",
          "display": "Ambulatory_Encounter"
        },
        "effectivePeriod": {
          "start": "2020-01-08T00:00:00-05:00",
          "end": "2020-01-08T00:00:00-05:00"
        },
        "issued": "2020-01-08T00:00:00.000-05:00",
        "performer": [
          {
            "reference": "Practitioner/Practitioner-2111",
            "display": "Phillip Ricardo Marks DD"
          }
        ],
        "result": [
          {
            "reference": "Observation/Observation-40761",
            "display": "Cervical_Cancer_Report_Observation_1"
          }
        ]
      },
      "request": {
        "method": "PUT",
        "url": "http://localhost:8080/cqf-ruler/R4/DiagnosticReport/DiagnosticReport-40762"
      }
    }
  ]
}