{
  "resourceType": "Bundle",
  "id": "Danny-Lester-Lindsey-3613-Encounter-3849",
  "type": "transaction",
  "entry": [
    {
      "fullUrl": "http://localhost:8080/cqf-ruler/R4/Encounter/Encounter-3849",
      "resource": {
        "resourceType": "Encounter",
        "id": "Encounter-3849",
        "text": {
          "status": "generated",
          "div": "<div xmlns=\"http://www.w3.org/1999/xhtml\">This is a simple example with only plain text</div>"
        },
        "extension": [
          {
            "url": "http://mihin.org/extension/copyright",
            "valueString": "Copyright 2014-2019 Michigan Health Information Network Shared Services. Licensed under the Apache License, Version 2.0 (the 'License'); you may not use this file except in compliance with the License. You may obtain a copy of the License at  http://www.apache.org/licenses/LICENSE-2.0.  Unless required by applicable law or agreed to in writing, software distributed under the License is distributed on an 'AS IS' BASIS, WITHOUT WARRANTIES OR CONDITIONS OF ANY KIND, either express or implied. See the License for the specific language governing permissions and limitations under the License."
          }
        ],
        "identifier": [
          {
            "use": "official",
            "value": "bd2f08b4-1fa2-4667-9694-aefef272b5b9"
          }
        ],
        "status": "finished",
        "class": {
          "system": "http://hl7.org/fhir/encounter-class",
          "code": "ambulatory",
          "display": "Ambulatory"
        },
        "type": [
          {
            "coding": [
              {
                "system": "http://snomed.info/sct",
                "code": "185345009",
                "display": "Encounter for symptom"
              }
            ]
          }
        ],
        "subject": {
          "reference": "Patient/Patient-3613",
          "display": "Danny Lester Lindsey"
        },
        "participant": [
          {
            "type": [
              {
                "coding": [
                  {
                    "system": "http://hl7.org/fhir/v3/ParticipationType",
                    "code": "ATND",
                    "display": "attender"
                  }
                ]
              }
            ],
            "period": {
              "start": "2021-02-16T10:15:00-05:00",
              "end": "2021-02-16T11:42:00-05:00"
            },
            "individual": {
              "reference": "Practitioner/Practitioner-2109",
              "display": "Ellen Knapp Schultz MD"
            }
          }
        ],
        "period": {
          "start": "2021-02-16T10:15:00-05:00",
          "end": "2021-02-16T11:42:00-05:00"
        },
        "location": [
          {
            "location": {
              "reference": "Location/Location-393",
              "display": "Windward General Hospital"
            }
          }
        ],
        "serviceProvider": {
          "display": "Windward General Hospital"
        }
      },
      "request": {
        "method": "PUT",
        "url": "http://localhost:8080/cqf-ruler/R4/Encounter/Encounter-3849"
      }
    },
    {
      "fullUrl": "http://localhost:8080/cqf-ruler/R4/Procedure/Procedure-81530",
      "resource": {
        "resourceType": "Procedure",
        "id": "Procedure-81530",
        "text": {
          "status": "generated",
          "div": "<div xmlns=\"http://www.w3.org/1999/xhtml\">This is a simple example with only plain text</div>"
        },
        "extension": [
          {
            "url": "http://mihin.org/extension/copyright",
            "valueString": "Copyright 2014-2019 Michigan Health Information Network Shared Services. Licensed under the Apache License, Version 2.0 (the 'License'); you may not use this file except in compliance with the License. You may obtain a copy of the License at  http://www.apache.org/licenses/LICENSE-2.0.  Unless required by applicable law or agreed to in writing, software distributed under the License is distributed on an 'AS IS' BASIS, WITHOUT WARRANTIES OR CONDITIONS OF ANY KIND, either express or implied. See the License for the specific language governing permissions and limitations under the License."
          }
        ],
        "identifier": [
          {
            "use": "official",
            "system": "http://mihin.org/fhir/sid/elementId",
            "value": "8849c62c-04ee-489e-8eed-592d71050815"
          }
        ],
        "status": "completed",
        "code": {
          "coding": [
            {
              "system": "http://www.ama-assn.org/go/cpt",
              "code": "45389"
            }
          ]
        },
        "subject": {
          "reference": "Patient/Patient-3613",
          "display": "Danny Lester Lindsey"
        },
        "encounter": {
          "reference": "Encounter/Encounter-3849",
          "display": "Colonoscopy_Encounter"
        },
        "performedPeriod": {
          "start": "2021-02-16T10:15:00-05:00",
          "end": "2021-02-16T11:42:00-05:00"
        },
        "performer": [
          {
            "actor": {
              "reference": "Practitioner/Practitioner-2109",
              "display": "Ellen Knapp Schultz MD"
            }
          }
        ],
        "location": {
          "reference": "Location/Location-393",
          "display": "Windward General Hospital"
        }
      },
      "request": {
        "method": "PUT",
        "url": "http://localhost:8080/cqf-ruler/R4/Procedure/Procedure-81530"
      }
    },
    {
      "fullUrl": "http://localhost:8080/cqf-ruler/R4/Observation/Observation-81532",
      "resource": {
        "resourceType": "Observation",
        "id": "Observation-81532",
        "text": {
          "status": "generated",
          "div": "<div xmlns=\"http://www.w3.org/1999/xhtml\">This is a simple example with only plain text</div>"
        },
        "extension": [
          {
            "url": "http://mihin.org/extension/copyright",
            "valueString": "Copyright 2014-2019 Michigan Health Information Network Shared Services. Licensed under the Apache License, Version 2.0 (the 'License'); you may not use this file except in compliance with the License. You may obtain a copy of the License at  http://www.apache.org/licenses/LICENSE-2.0.  Unless required by applicable law or agreed to in writing, software distributed under the License is distributed on an 'AS IS' BASIS, WITHOUT WARRANTIES OR CONDITIONS OF ANY KIND, either express or implied. See the License for the specific language governing permissions and limitations under the License."
          }
        ],
        "identifier": [
          {
            "use": "official",
            "system": "http://mihin.org/fhir/sid/elementId",
            "value": "e5b6342c-3271-4d00-987f-a7c406dfb5c3"
          }
        ],
        "status": "final",
        "category": [
          {
            "coding": [
              {
                "system": "http://hl7.org/fhir/observation-category",
                "code": "exam",
                "display": "Exam"
              }
            ]
          }
        ],
        "code": {
          "coding": [
            {
              "system": "http://hl7.org/fhir/sid/icd-10-cm",
              "code": "C18.2"
            }
          ]
        },
        "subject": {
          "reference": "Patient/Patient-3613",
          "display": "Danny Lester Lindsey"
        },
        "encounter": {
          "reference": "Encounter/Encounter-3849",
          "display": "Colonoscopy_Encounter"
        },
        "effectiveDateTime": "2021-02-16T11:42:00-05:00",
        "performer": [
          {
            "reference": "Practitioner/Practitioner-2109",
            "display": "Ellen Knapp Schultz MD"
          }
        ],
        "valueString": "POSITIVE"
      },
      "request": {
        "method": "PUT",
        "url": "http://localhost:8080/cqf-ruler/R4/Observation/Observation-81532"
      }
    },
    {
      "fullUrl": "http://localhost:8080/cqf-ruler/R4/DiagnosticReport/DiagnosticReport-81533",
      "resource": {
        "resourceType": "DiagnosticReport",
        "id": "DiagnosticReport-81533",
        "text": {
          "status": "generated",
          "div": "<div xmlns=\"http://www.w3.org/1999/xhtml\">This is a simple example with only plain text</div>"
        },
        "extension": [
          {
            "url": "http://mihin.org/extension/copyright",
            "valueString": "Copyright 2014-2019 Michigan Health Information Network Shared Services. Licensed under the Apache License, Version 2.0 (the 'License'); you may not use this file except in compliance with the License. You may obtain a copy of the License at  http://www.apache.org/licenses/LICENSE-2.0.  Unless required by applicable law or agreed to in writing, software distributed under the License is distributed on an 'AS IS' BASIS, WITHOUT WARRANTIES OR CONDITIONS OF ANY KIND, either express or implied. See the License for the specific language governing permissions and limitations under the License."
          }
        ],
        "identifier": [
          {
            "use": "official",
            "system": "http://mihin.org/fhir/sid/elementId",
            "value": "7a0a6945-1b31-4436-9d77-825fb8a76865"
          }
        ],
        "status": "final",
        "code": {
          "coding": [
            {
              "system": "http://www.ama-assn.org/go/cpt",
              "code": "44403"
            }
          ]
        },
        "subject": {
          "reference": "Patient/Patient-3613",
          "display": "Danny Lester Lindsey"
        },
        "encounter": {
          "reference": "Encounter/Encounter-3849",
          "display": "Colonoscopy_Encounter"
        },
        "effectivePeriod": {
          "start": "2021-02-16T11:42:00-05:00",
          "end": "2021-02-16T11:42:00-05:00"
        },
        "issued": "2021-02-16T11:42:00.000-05:00",
        "performer": [
          {
            "reference": "Practitioner/Practitioner-2109",
            "display": "Ellen Knapp Schultz MD"
          }
        ],
        "result": [
          {
            "reference": "Observation/Observation-81532",
            "display": "Positive_Colonoscopy_Diagnostic_Report_Observation_1"
          }
        ]
      },
      "request": {
        "method": "PUT",
        "url": "http://localhost:8080/cqf-ruler/R4/DiagnosticReport/DiagnosticReport-81533"
      }
    }
  ]
}