{
  "resourceType": "Bundle",
  "id": "Jeremy-Marcus-Ramsey-3600-Encounter-3824",
  "type": "transaction",
  "entry": [
    {
      "fullUrl": "http://localhost:8080/cqf-ruler/R4/Encounter/Encounter-3824",
      "resource": {
        "resourceType": "Encounter",
        "id": "Encounter-3824",
        "text": {
          "status": "generated",
          "div": "<div xmlns=\"http://www.w3.org/1999/xhtml\">This is a simple example with only plain text</div>"
        },
        "extension": [
          {
            "url": "http://mihin.org/extension/copyright",
            "valueString": "Copyright 2014-2019 Michigan Health Information Network Shared Services. Licensed under the Apache License, Version 2.0 (the 'License'); you may not use this file except in compliance with the License. You may obtain a copy of the License at  http://www.apache.org/licenses/LICENSE-2.0.  Unless required by applicable law or agreed to in writing, software distributed under the License is distributed on an 'AS IS' BASIS, WITHOUT WARRANTIES OR CONDITIONS OF ANY KIND, either express or implied. See the License for the specific language governing permissions and limitations under the License."
          }
        ],
        "identifier": [
          {
            "use": "official",
            "value": "2cda1fe6-1520-41b5-bba1-728d5dca8a49"
          }
        ],
        "status": "finished",
        "class": {
          "system": "http://hl7.org/fhir/encounter-class",
          "code": "ambulatory",
          "display": "Ambulatory"
        },
        "type": [
          {
            "coding": [
              {
                "system": "http://snomed.info/sct",
                "code": "185345009",
                "display": "Encounter for symptom"
              }
            ]
          }
        ],
        "subject": {
          "reference": "Patient/Patient-3600",
          "display": "Jeremy Marcus Ramsey"
        },
        "participant": [
          {
            "type": [
              {
                "coding": [
                  {
                    "system": "http://hl7.org/fhir/v3/ParticipationType",
                    "code": "ATND",
                    "display": "attender"
                  }
                ]
              }
            ],
            "period": {
              "start": "2021-02-17T10:19:00-05:00",
              "end": "2021-02-17T11:25:00-05:00"
            },
            "individual": {
              "reference": "Practitioner/Practitioner-2855",
              "display": "Maureen Hood Dudley MD"
            }
          }
        ],
        "period": {
          "start": "2021-02-17T10:19:00-05:00",
          "end": "2021-02-17T11:25:00-05:00"
        },
        "location": [
          {
            "location": {
              "reference": "Location/Location-406",
              "display": "Gift of Mercy Hospital"
            }
          }
        ],
        "serviceProvider": {
          "display": "Gift of Mercy Hospital"
        }
      },
      "request": {
        "method": "PUT",
        "url": "http://localhost:8080/cqf-ruler/R4/Encounter/Encounter-3824"
      }
    },
    {
      "fullUrl": "http://localhost:8080/cqf-ruler/R4/Procedure/Procedure-81460",
      "resource": {
        "resourceType": "Procedure",
        "id": "Procedure-81460",
        "text": {
          "status": "generated",
          "div": "<div xmlns=\"http://www.w3.org/1999/xhtml\">This is a simple example with only plain text</div>"
        },
        "extension": [
          {
            "url": "http://mihin.org/extension/copyright",
            "valueString": "Copyright 2014-2019 Michigan Health Information Network Shared Services. Licensed under the Apache License, Version 2.0 (the 'License'); you may not use this file except in compliance with the License. You may obtain a copy of the License at  http://www.apache.org/licenses/LICENSE-2.0.  Unless required by applicable law or agreed to in writing, software distributed under the License is distributed on an 'AS IS' BASIS, WITHOUT WARRANTIES OR CONDITIONS OF ANY KIND, either express or implied. See the License for the specific language governing permissions and limitations under the License."
          }
        ],
        "identifier": [
          {
            "use": "official",
            "system": "http://mihin.org/fhir/sid/elementId",
            "value": "a130ba36-2a21-4e72-a7a2-9bb6b50dcfa9"
          }
        ],
        "status": "completed",
        "code": {
          "coding": [
            {
              "system": "http://www.ama-assn.org/go/cpt",
              "code": "45379"
            }
          ]
        },
        "subject": {
          "reference": "Patient/Patient-3600",
          "display": "Jeremy Marcus Ramsey"
        },
        "encounter": {
          "reference": "Encounter/Encounter-3824",
          "display": "Colonoscopy_Encounter"
        },
        "performedPeriod": {
          "start": "2021-02-17T10:19:00-05:00",
          "end": "2021-02-17T11:25:00-05:00"
        },
        "performer": [
          {
            "actor": {
              "reference": "Practitioner/Practitioner-2855",
              "display": "Maureen Hood Dudley MD"
            }
          }
        ],
        "location": {
          "reference": "Location/Location-406",
          "display": "Gift of Mercy Hospital"
        }
      },
      "request": {
        "method": "PUT",
        "url": "http://localhost:8080/cqf-ruler/R4/Procedure/Procedure-81460"
      }
    },
    {
      "fullUrl": "http://localhost:8080/cqf-ruler/R4/Observation/Observation-81462",
      "resource": {
        "resourceType": "Observation",
        "id": "Observation-81462",
        "text": {
          "status": "generated",
          "div": "<div xmlns=\"http://www.w3.org/1999/xhtml\">This is a simple example with only plain text</div>"
        },
        "extension": [
          {
            "url": "http://mihin.org/extension/copyright",
            "valueString": "Copyright 2014-2019 Michigan Health Information Network Shared Services. Licensed under the Apache License, Version 2.0 (the 'License'); you may not use this file except in compliance with the License. You may obtain a copy of the License at  http://www.apache.org/licenses/LICENSE-2.0.  Unless required by applicable law or agreed to in writing, software distributed under the License is distributed on an 'AS IS' BASIS, WITHOUT WARRANTIES OR CONDITIONS OF ANY KIND, either express or implied. See the License for the specific language governing permissions and limitations under the License."
          }
        ],
        "identifier": [
          {
            "use": "official",
            "system": "http://mihin.org/fhir/sid/elementId",
            "value": "b952b587-2e69-4a20-ae18-2260680c277e"
          }
        ],
        "status": "final",
        "category": [
          {
            "coding": [
              {
                "system": "http://hl7.org/fhir/observation-category",
                "code": "exam",
                "display": "Exam"
              }
            ]
          }
        ],
        "code": {
          "coding": [
            {
              "system": "http://hl7.org/fhir/sid/icd-10-cm",
              "code": "C18.8"
            }
          ]
        },
        "subject": {
          "reference": "Patient/Patient-3600",
          "display": "Jeremy Marcus Ramsey"
        },
        "encounter": {
          "reference": "Encounter/Encounter-3824",
          "display": "Colonoscopy_Encounter"
        },
        "effectiveDateTime": "2021-02-17T11:25:00-05:00",
        "performer": [
          {
            "reference": "Practitioner/Practitioner-2855",
            "display": "Maureen Hood Dudley MD"
          }
        ],
        "valueString": "POSITIVE"
      },
      "request": {
        "method": "PUT",
        "url": "http://localhost:8080/cqf-ruler/R4/Observation/Observation-81462"
      }
    },
    {
      "fullUrl": "http://localhost:8080/cqf-ruler/R4/DiagnosticReport/DiagnosticReport-81463",
      "resource": {
        "resourceType": "DiagnosticReport",
        "id": "DiagnosticReport-81463",
        "text": {
          "status": "generated",
          "div": "<div xmlns=\"http://www.w3.org/1999/xhtml\">This is a simple example with only plain text</div>"
        },
        "extension": [
          {
            "url": "http://mihin.org/extension/copyright",
            "valueString": "Copyright 2014-2019 Michigan Health Information Network Shared Services. Licensed under the Apache License, Version 2.0 (the 'License'); you may not use this file except in compliance with the License. You may obtain a copy of the License at  http://www.apache.org/licenses/LICENSE-2.0.  Unless required by applicable law or agreed to in writing, software distributed under the License is distributed on an 'AS IS' BASIS, WITHOUT WARRANTIES OR CONDITIONS OF ANY KIND, either express or implied. See the License for the specific language governing permissions and limitations under the License."
          }
        ],
        "identifier": [
          {
            "use": "official",
            "system": "http://mihin.org/fhir/sid/elementId",
            "value": "d8a3bead-08d9-4a44-88b7-02385e976f17"
          }
        ],
        "status": "final",
        "code": {
          "coding": [
            {
              "system": "http://www.ama-assn.org/go/cpt",
              "code": "45381"
            }
          ]
        },
        "subject": {
          "reference": "Patient/Patient-3600",
          "display": "Jeremy Marcus Ramsey"
        },
        "encounter": {
          "reference": "Encounter/Encounter-3824",
          "display": "Colonoscopy_Encounter"
        },
        "effectivePeriod": {
          "start": "2021-02-17T11:25:00-05:00",
          "end": "2021-02-17T11:25:00-05:00"
        },
        "issued": "2021-02-17T11:25:00.000-05:00",
        "performer": [
          {
            "reference": "Practitioner/Practitioner-2855",
            "display": "Maureen Hood Dudley MD"
          }
        ],
        "result": [
          {
            "reference": "Observation/Observation-81462",
            "display": "Positive_Colonoscopy_Diagnostic_Report_Observation_1"
          }
        ]
      },
      "request": {
        "method": "PUT",
        "url": "http://localhost:8080/cqf-ruler/R4/DiagnosticReport/DiagnosticReport-81463"
      }
    }
  ]
}