{
  "resourceType": "Bundle",
  "id": "Phillip-Ricardo-Marks-DD-2111-Encounter-2670",
  "type": "transaction",
  "entry": [
    {
      "fullUrl": "http://localhost:8080/cqf-ruler/R4/Encounter/Encounter-2670",
      "resource": {
        "resourceType": "Encounter",
        "id": "Encounter-2670",
        "text": {
          "status": "generated",
          "div": "<div xmlns=\"http://www.w3.org/1999/xhtml\">This is a simple example with only plain text</div>"
        },
        "extension": [
          {
            "url": "http://mihin.org/extension/copyright",
            "valueString": "Copyright 2014-2019 Michigan Health Information Network Shared Services. Licensed under the Apache License, Version 2.0 (the 'License'); you may not use this file except in compliance with the License. You may obtain a copy of the License at  http://www.apache.org/licenses/LICENSE-2.0.  Unless required by applicable law or agreed to in writing, software distributed under the License is distributed on an 'AS IS' BASIS, WITHOUT WARRANTIES OR CONDITIONS OF ANY KIND, either express or implied. See the License for the specific language governing permissions and limitations under the License."
          }
        ],
        "identifier": [
          {
            "use": "official",
            "value": "4c692417-3c90-4461-a50f-f0d3895566f5"
          }
        ],
        "status": "finished",
        "class": {
          "system": "http://hl7.org/fhir/encounter-class",
          "code": "outpatient",
          "display": "Outpatient"
        },
        "type": [
          {
            "coding": [
              {
                "system": "http://snomed.info/sct",
                "code": "428191000124101",
                "display": "Documentation of current medications"
              }
            ]
          }
        ],
        "subject": {
          "reference": "Patient/Patient-2111",
          "display": "Phillip Ricardo Marks DD"
        },
        "participant": [
          {
            "type": [
              {
                "coding": [
                  {
                    "system": "http://hl7.org/fhir/v3/ParticipationType",
                    "code": "ATND",
                    "display": "attender"
                  }
                ]
              }
            ],
            "period": {
              "start": "2020-06-15T12:20:00-04:00",
              "end": "2020-06-15T12:40:00-04:00"
            },
            "individual": {
              "reference": "Practitioner/Practitioner-2856",
              "display": "Andrea Carmen Hebert MD"
            }
          }
        ],
        "period": {
          "start": "2020-06-15T12:20:00-04:00",
          "end": "2020-06-15T12:40:00-04:00"
        },
        "location": [
          {
            "location": {
              "reference": "Location/Location-439",
              "display": "Lansing Southside Urgent Care Center"
            }
          }
        ],
        "serviceProvider": {
          "display": "Lansing Southside Urgent Care Center"
        }
      },
      "request": {
        "method": "PUT",
        "url": "http://localhost:8080/cqf-ruler/R4/Encounter/Encounter-2670"
      }
    },
    {
      "fullUrl": "http://localhost:8080/cqf-ruler/R4/Task/Task-58049",
      "resource": {
        "resourceType": "Task",
        "id": "Task-58049",
        "text": {
          "status": "generated",
          "div": "<div xmlns=\"http://www.w3.org/1999/xhtml\">This is a simple example with only plain text</div>"
        },
        "extension": [
          {
            "url": "http://mihin.org/extension/copyright",
            "valueString": "Copyright 2014-2019 Michigan Health Information Network Shared Services. Licensed under the Apache License, Version 2.0 (the 'License'); you may not use this file except in compliance with the License. You may obtain a copy of the License at  http://www.apache.org/licenses/LICENSE-2.0.  Unless required by applicable law or agreed to in writing, software distributed under the License is distributed on an 'AS IS' BASIS, WITHOUT WARRANTIES OR CONDITIONS OF ANY KIND, either express or implied. See the License for the specific language governing permissions and limitations under the License."
          }
        ],
        "status": "accepted",
        "intent": "original-order",
        "code": {
          "coding": [
            {
              "system": "http://snomed.info/sct",
              "code": "430193006",
              "display": "Medication Reconciliation (procedure)"
            }
          ]
        },
        "description": "Care_Plan_Start Task 1",
        "for": {
          "reference": "Patient/Patient-2111",
          "display": "Phillip Ricardo Marks DD"
        },
        "encounter": {
          "reference": "Encounter/Encounter-2670",
          "display": "Outpatient_Encounter"
        },
        "executionPeriod": {
          "start": "2020-06-19T00:00:00-04:00",
          "end": "2020-06-19T00:00:00-04:00"
        },
        "authoredOn": "2020-06-19T00:00:00-04:00",
        "requester": {
          "reference": "Practitioner/Practitioner-2856",
          "display": "Andrea Carmen Hebert MD"
        }
      },
      "request": {
        "method": "PUT",
        "url": "http://localhost:8080/cqf-ruler/R4/Task/Task-58049"
      }
    },
    {
      "fullUrl": "http://localhost:8080/cqf-ruler/R4/CarePlan/CarePlan-58048",
      "resource": {
        "resourceType": "CarePlan",
        "id": "CarePlan-58048",
        "text": {
          "status": "generated",
          "div": "<div xmlns=\"http://www.w3.org/1999/xhtml\">This is a simple example with only plain text</div>"
        },
        "extension": [
          {
            "url": "http://mihin.org/extension/copyright",
            "valueString": "Copyright 2014-2019 Michigan Health Information Network Shared Services. Licensed under the Apache License, Version 2.0 (the 'License'); you may not use this file except in compliance with the License. You may obtain a copy of the License at  http://www.apache.org/licenses/LICENSE-2.0.  Unless required by applicable law or agreed to in writing, software distributed under the License is distributed on an 'AS IS' BASIS, WITHOUT WARRANTIES OR CONDITIONS OF ANY KIND, either express or implied. See the License for the specific language governing permissions and limitations under the License."
          }
        ],
        "identifier": [
          {
            "use": "official",
            "system": "http://mihin.org/fhir/sid/elementId",
            "value": "4f28e9fc-0d86-40a2-887b-baf18b26c45a"
          }
        ],
        "status": "active",
        "category": [
          {
            "coding": [
              {
                "system": "http://snomed.info/sct",
                "code": "430193006",
                "display": "Medication Reconciliation (procedure)"
              }
            ]
          }
        ],
        "subject": {
          "reference": "Patient/Patient-2111",
          "display": "Phillip Ricardo Marks DD"
        },
        "encounter": {
          "reference": "Encounter/Encounter-2670",
          "display": "Outpatient_Encounter"
        },
        "period": {
          "start": "2020-06-15T12:20:00-04:00",
          "end": "2020-06-15T12:20:00-04:00"
        },
        "author": {
          "reference": "Practitioner/Practitioner-2856",
          "display": "Andrea Carmen Hebert MD"
        },
        "activity": [
          {
            "reference": {
              "reference": "Task/Task-58049",
              "display": "Care_Plan_Start Task 1"
            }
          }
        ]
      },
      "request": {
        "method": "PUT",
        "url": "http://localhost:8080/cqf-ruler/R4/CarePlan/CarePlan-58048"
      }
    }
  ]
}