{
  "resourceType": "Bundle",
  "id": "Phillip-Ricardo-Marks-DD-2111-Encounter-2523",
  "type": "transaction",
  "entry": [
    {
      "fullUrl": "http://localhost:8080/cqf-ruler/R4/Encounter/Encounter-2523",
      "resource": {
        "resourceType": "Encounter",
        "id": "Encounter-2523",
        "text": {
          "status": "generated",
          "div": "<div xmlns=\"http://www.w3.org/1999/xhtml\">This is a simple example with only plain text</div>"
        },
        "extension": [
          {
            "url": "http://mihin.org/extension/copyright",
            "valueString": "Copyright 2014-2019 Michigan Health Information Network Shared Services. Licensed under the Apache License, Version 2.0 (the 'License'); you may not use this file except in compliance with the License. You may obtain a copy of the License at  http://www.apache.org/licenses/LICENSE-2.0.  Unless required by applicable law or agreed to in writing, software distributed under the License is distributed on an 'AS IS' BASIS, WITHOUT WARRANTIES OR CONDITIONS OF ANY KIND, either express or implied. See the License for the specific language governing permissions and limitations under the License."
          }
        ],
        "identifier": [
          {
            "use": "official",
            "value": "d5a8bc79-1f3f-4190-8744-c6d986477360"
          }
        ],
        "status": "finished",
        "class": {
          "system": "http://hl7.org/fhir/encounter-class",
          "code": "ambulatory",
          "display": "Ambulatory"
        },
        "type": [
          {
            "coding": [
              {
                "system": "http://snomed.info/sct",
                "code": "185345009",
                "display": "Encounter for symptom"
              }
            ]
          }
        ],
        "subject": {
          "reference": "Patient/Patient-2111",
          "display": "Phillip Ricardo Marks DD"
        },
        "participant": [
          {
            "type": [
              {
                "coding": [
                  {
                    "system": "http://hl7.org/fhir/v3/ParticipationType",
                    "code": "ATND",
                    "display": "attender"
                  }
                ]
              }
            ],
            "period": {
              "start": "2020-05-18T00:08:00-04:00",
              "end": "2020-05-18T01:13:00-04:00"
            },
            "individual": {
              "reference": "Practitioner/Practitioner-1081",
              "display": "Katherine Elaine Taylor MD"
            }
          }
        ],
        "period": {
          "start": "2020-05-18T00:08:00-04:00",
          "end": "2020-05-18T01:13:00-04:00"
        },
        "location": [
          {
            "location": {
              "reference": "Location/Location-393",
              "display": "Windward General Hospital"
            }
          }
        ],
        "serviceProvider": {
          "display": "Windward General Hospital"
        }
      },
      "request": {
        "method": "PUT",
        "url": "http://localhost:8080/cqf-ruler/R4/Encounter/Encounter-2523"
      }
    },
    {
      "fullUrl": "http://localhost:8080/cqf-ruler/R4/Procedure/Procedure-55125",
      "resource": {
        "resourceType": "Procedure",
        "id": "Procedure-55125",
        "text": {
          "status": "generated",
          "div": "<div xmlns=\"http://www.w3.org/1999/xhtml\">This is a simple example with only plain text</div>"
        },
        "extension": [
          {
            "url": "http://mihin.org/extension/copyright",
            "valueString": "Copyright 2014-2019 Michigan Health Information Network Shared Services. Licensed under the Apache License, Version 2.0 (the 'License'); you may not use this file except in compliance with the License. You may obtain a copy of the License at  http://www.apache.org/licenses/LICENSE-2.0.  Unless required by applicable law or agreed to in writing, software distributed under the License is distributed on an 'AS IS' BASIS, WITHOUT WARRANTIES OR CONDITIONS OF ANY KIND, either express or implied. See the License for the specific language governing permissions and limitations under the License."
          }
        ],
        "identifier": [
          {
            "use": "official",
            "system": "http://mihin.org/fhir/sid/elementId",
            "value": "1a7124e1-4ab9-495e-97f4-d4f234127c37"
          }
        ],
        "status": "completed",
        "code": {
          "coding": [
            {
              "system": "http://www.ama-assn.org/go/cpt",
              "code": "45386"
            }
          ]
        },
        "subject": {
          "reference": "Patient/Patient-2111",
          "display": "Phillip Ricardo Marks DD"
        },
        "encounter": {
          "reference": "Encounter/Encounter-2523",
          "display": "Colonoscopy_Encounter"
        },
        "performedPeriod": {
          "start": "2020-05-18T00:08:00-04:00",
          "end": "2020-05-18T01:13:00-04:00"
        },
        "performer": [
          {
            "actor": {
              "reference": "Practitioner/Practitioner-1081",
              "display": "Katherine Elaine Taylor MD"
            }
          }
        ],
        "location": {
          "reference": "Location/Location-393",
          "display": "Windward General Hospital"
        }
      },
      "request": {
        "method": "PUT",
        "url": "http://localhost:8080/cqf-ruler/R4/Procedure/Procedure-55125"
      }
    },
    {
      "fullUrl": "http://localhost:8080/cqf-ruler/R4/Observation/Observation-55126",
      "resource": {
        "resourceType": "Observation",
        "id": "Observation-55126",
        "text": {
          "status": "generated",
          "div": "<div xmlns=\"http://www.w3.org/1999/xhtml\">This is a simple example with only plain text</div>"
        },
        "extension": [
          {
            "url": "http://mihin.org/extension/copyright",
            "valueString": "Copyright 2014-2019 Michigan Health Information Network Shared Services. Licensed under the Apache License, Version 2.0 (the 'License'); you may not use this file except in compliance with the License. You may obtain a copy of the License at  http://www.apache.org/licenses/LICENSE-2.0.  Unless required by applicable law or agreed to in writing, software distributed under the License is distributed on an 'AS IS' BASIS, WITHOUT WARRANTIES OR CONDITIONS OF ANY KIND, either express or implied. See the License for the specific language governing permissions and limitations under the License."
          }
        ],
        "identifier": [
          {
            "use": "official",
            "system": "http://mihin.org/fhir/sid/elementId",
            "value": "db704923-33e3-4a40-aced-15c75d0e5a89"
          }
        ],
        "status": "final",
        "category": [
          {
            "coding": [
              {
                "system": "http://hl7.org/fhir/observation-category",
                "code": "exam",
                "display": "Exam"
              }
            ]
          }
        ],
        "code": {
          "coding": [
            {
              "system": "http://snomed.info/sct",
              "code": "851000119109",
              "display": "History of colonoscopy (situation)"
            }
          ]
        },
        "subject": {
          "reference": "Patient/Patient-2111",
          "display": "Phillip Ricardo Marks DD"
        },
        "encounter": {
          "reference": "Encounter/Encounter-2523",
          "display": "Colonoscopy_Encounter"
        },
        "effectiveDateTime": "2020-05-18T01:13:00-04:00",
        "performer": [
          {
            "reference": "Practitioner/Practitioner-1081",
            "display": "Katherine Elaine Taylor MD"
          }
        ],
        "valueString": "NEGATIVE"
      },
      "request": {
        "method": "PUT",
        "url": "http://localhost:8080/cqf-ruler/R4/Observation/Observation-55126"
      }
    },
    {
      "fullUrl": "http://localhost:8080/cqf-ruler/R4/DiagnosticReport/DiagnosticReport-55127",
      "resource": {
        "resourceType": "DiagnosticReport",
        "id": "DiagnosticReport-55127",
        "text": {
          "status": "generated",
          "div": "<div xmlns=\"http://www.w3.org/1999/xhtml\">This is a simple example with only plain text</div>"
        },
        "extension": [
          {
            "url": "http://mihin.org/extension/copyright",
            "valueString": "Copyright 2014-2019 Michigan Health Information Network Shared Services. Licensed under the Apache License, Version 2.0 (the 'License'); you may not use this file except in compliance with the License. You may obtain a copy of the License at  http://www.apache.org/licenses/LICENSE-2.0.  Unless required by applicable law or agreed to in writing, software distributed under the License is distributed on an 'AS IS' BASIS, WITHOUT WARRANTIES OR CONDITIONS OF ANY KIND, either express or implied. See the License for the specific language governing permissions and limitations under the License."
          }
        ],
        "identifier": [
          {
            "use": "official",
            "system": "http://mihin.org/fhir/sid/elementId",
            "value": "0b56aca6-911c-432e-b16c-42e678b57e7d"
          }
        ],
        "status": "final",
        "code": {
          "coding": [
            {
              "system": "http://www.ama-assn.org/go/cpt",
              "code": "44397"
            }
          ]
        },
        "subject": {
          "reference": "Patient/Patient-2111",
          "display": "Phillip Ricardo Marks DD"
        },
        "encounter": {
          "reference": "Encounter/Encounter-2523",
          "display": "Colonoscopy_Encounter"
        },
        "effectivePeriod": {
          "start": "2020-05-18T01:13:00-04:00",
          "end": "2020-05-18T01:13:00-04:00"
        },
        "issued": "2020-05-18T01:13:00.000-04:00",
        "performer": [
          {
            "reference": "Practitioner/Practitioner-1081",
            "display": "Katherine Elaine Taylor MD"
          }
        ],
        "result": [
          {
            "reference": "Observation/Observation-55126",
            "display": "Negative_Colonoscopy_Diagnostic_Report_Observation_1"
          }
        ]
      },
      "request": {
        "method": "PUT",
        "url": "http://localhost:8080/cqf-ruler/R4/DiagnosticReport/DiagnosticReport-55127"
      }
    }
  ]
}