{
  "resourceType": "Bundle",
  "id": "Louise-Loretta-Dunn-3559-Encounter-3839",
  "type": "transaction",
  "entry": [
    {
      "fullUrl": "http://localhost:8080/cqf-ruler/R4/Encounter/Encounter-3839",
      "resource": {
        "resourceType": "Encounter",
        "id": "Encounter-3839",
        "text": {
          "status": "generated",
          "div": "<div xmlns=\"http://www.w3.org/1999/xhtml\">This is a simple example with only plain text</div>"
        },
        "extension": [
          {
            "url": "http://mihin.org/extension/copyright",
            "valueString": "Copyright 2014-2019 Michigan Health Information Network Shared Services. Licensed under the Apache License, Version 2.0 (the 'License'); you may not use this file except in compliance with the License. You may obtain a copy of the License at  http://www.apache.org/licenses/LICENSE-2.0.  Unless required by applicable law or agreed to in writing, software distributed under the License is distributed on an 'AS IS' BASIS, WITHOUT WARRANTIES OR CONDITIONS OF ANY KIND, either express or implied. See the License for the specific language governing permissions and limitations under the License."
          }
        ],
        "identifier": [
          {
            "use": "official",
            "value": "1a7e6004-5fed-4f34-a6dd-2dcf799d2c45"
          }
        ],
        "status": "finished",
        "class": {
          "system": "http://hl7.org/fhir/encounter-class",
          "code": "outpatient",
          "display": "Outpatient"
        },
        "type": [
          {
            "coding": [
              {
                "system": "http://snomed.info/sct",
                "code": "428191000124101",
                "display": "Documentation of current medications"
              }
            ]
          }
        ],
        "subject": {
          "reference": "Patient/Patient-3559",
          "display": "Louise Loretta Dunn"
        },
        "participant": [
          {
            "type": [
              {
                "coding": [
                  {
                    "system": "http://hl7.org/fhir/v3/ParticipationType",
                    "code": "ATND",
                    "display": "attender"
                  }
                ]
              }
            ],
            "period": {
              "start": "2021-02-16T13:00:00-05:00",
              "end": "2021-02-16T13:20:00-05:00"
            },
            "individual": {
              "reference": "Practitioner/Practitioner-2110",
              "display": "Ana Campbell Gross MD"
            }
          }
        ],
        "period": {
          "start": "2021-02-16T13:00:00-05:00",
          "end": "2021-02-16T13:20:00-05:00"
        },
        "location": [
          {
            "location": {
              "reference": "Location/Location-438",
              "display": "Lansing Westside Urgent Care Center"
            }
          }
        ],
        "serviceProvider": {
          "display": "Lansing Westside Urgent Care Center"
        }
      },
      "request": {
        "method": "PUT",
        "url": "http://localhost:8080/cqf-ruler/R4/Encounter/Encounter-3839"
      }
    },
    {
      "fullUrl": "http://localhost:8080/cqf-ruler/R4/Task/Task-81503",
      "resource": {
        "resourceType": "Task",
        "id": "Task-81503",
        "text": {
          "status": "generated",
          "div": "<div xmlns=\"http://www.w3.org/1999/xhtml\">This is a simple example with only plain text</div>"
        },
        "extension": [
          {
            "url": "http://mihin.org/extension/copyright",
            "valueString": "Copyright 2014-2019 Michigan Health Information Network Shared Services. Licensed under the Apache License, Version 2.0 (the 'License'); you may not use this file except in compliance with the License. You may obtain a copy of the License at  http://www.apache.org/licenses/LICENSE-2.0.  Unless required by applicable law or agreed to in writing, software distributed under the License is distributed on an 'AS IS' BASIS, WITHOUT WARRANTIES OR CONDITIONS OF ANY KIND, either express or implied. See the License for the specific language governing permissions and limitations under the License."
          }
        ],
        "status": "accepted",
        "intent": "original-order",
        "code": {
          "coding": [
            {
              "system": "http://snomed.info/sct",
              "code": "430193006",
              "display": "Medication Reconciliation (procedure)"
            }
          ]
        },
        "description": "Care_Plan_Start Task 1",
        "for": {
          "reference": "Patient/Patient-3559",
          "display": "Louise Loretta Dunn"
        },
        "encounter": {
          "reference": "Encounter/Encounter-3839",
          "display": "Outpatient_Encounter"
        },
        "executionPeriod": {
          "start": "2021-02-17T00:00:00-05:00",
          "end": "2021-02-17T00:00:00-05:00"
        },
        "authoredOn": "2021-02-17T00:00:00-05:00",
        "requester": {
          "reference": "Practitioner/Practitioner-2110",
          "display": "Ana Campbell Gross MD"
        }
      },
      "request": {
        "method": "PUT",
        "url": "http://localhost:8080/cqf-ruler/R4/Task/Task-81503"
      }
    },
    {
      "fullUrl": "http://localhost:8080/cqf-ruler/R4/CarePlan/CarePlan-81502",
      "resource": {
        "resourceType": "CarePlan",
        "id": "CarePlan-81502",
        "text": {
          "status": "generated",
          "div": "<div xmlns=\"http://www.w3.org/1999/xhtml\">This is a simple example with only plain text</div>"
        },
        "extension": [
          {
            "url": "http://mihin.org/extension/copyright",
            "valueString": "Copyright 2014-2019 Michigan Health Information Network Shared Services. Licensed under the Apache License, Version 2.0 (the 'License'); you may not use this file except in compliance with the License. You may obtain a copy of the License at  http://www.apache.org/licenses/LICENSE-2.0.  Unless required by applicable law or agreed to in writing, software distributed under the License is distributed on an 'AS IS' BASIS, WITHOUT WARRANTIES OR CONDITIONS OF ANY KIND, either express or implied. See the License for the specific language governing permissions and limitations under the License."
          }
        ],
        "identifier": [
          {
            "use": "official",
            "system": "http://mihin.org/fhir/sid/elementId",
            "value": "1eab9aae-3d9a-41bf-a1cc-55b2223af0f3"
          }
        ],
        "status": "active",
        "category": [
          {
            "coding": [
              {
                "system": "http://snomed.info/sct",
                "code": "430193006",
                "display": "Medication Reconciliation (procedure)"
              }
            ]
          }
        ],
        "subject": {
          "reference": "Patient/Patient-3559",
          "display": "Louise Loretta Dunn"
        },
        "encounter": {
          "reference": "Encounter/Encounter-3839",
          "display": "Outpatient_Encounter"
        },
        "period": {
          "start": "2021-02-16T13:00:00-05:00",
          "end": "2021-02-16T13:00:00-05:00"
        },
        "author": {
          "reference": "Practitioner/Practitioner-2110",
          "display": "Ana Campbell Gross MD"
        },
        "activity": [
          {
            "reference": {
              "reference": "Task/Task-81503",
              "display": "Care_Plan_Start Task 1"
            }
          }
        ]
      },
      "request": {
        "method": "PUT",
        "url": "http://localhost:8080/cqf-ruler/R4/CarePlan/CarePlan-81502"
      }
    }
  ]
}