{
  "resourceType": "Bundle",
  "id": "Ryan-Frey-Warner-3636-Encounter-1977",
  "type": "transaction",
  "entry": [
    {
      "fullUrl": "http://localhost:8080/cqf-ruler/R4/Encounter/Encounter-1977",
      "resource": {
        "resourceType": "Encounter",
        "id": "Encounter-1977",
        "text": {
          "status": "generated",
          "div": "<div xmlns=\"http://www.w3.org/1999/xhtml\">This is a simple example with only plain text</div>"
        },
        "extension": [
          {
            "url": "http://mihin.org/extension/copyright",
            "valueString": "Copyright 2014-2019 Michigan Health Information Network Shared Services. Licensed under the Apache License, Version 2.0 (the 'License'); you may not use this file except in compliance with the License. You may obtain a copy of the License at  http://www.apache.org/licenses/LICENSE-2.0.  Unless required by applicable law or agreed to in writing, software distributed under the License is distributed on an 'AS IS' BASIS, WITHOUT WARRANTIES OR CONDITIONS OF ANY KIND, either express or implied. See the License for the specific language governing permissions and limitations under the License."
          }
        ],
        "identifier": [
          {
            "use": "official",
            "value": "f5845ce8-5af5-435d-92d7-1f800c310d63"
          }
        ],
        "status": "finished",
        "class": {
          "system": "http://hl7.org/fhir/encounter-class",
          "code": "ambulatory",
          "display": "Ambulatory"
        },
        "type": [
          {
            "coding": [
              {
                "system": "http://snomed.info/sct",
                "code": "185345009",
                "display": "Encounter for symptom"
              }
            ]
          }
        ],
        "subject": {
          "reference": "Patient/Patient-3636",
          "display": "Ryan Frey Warner"
        },
        "participant": [
          {
            "type": [
              {
                "coding": [
                  {
                    "system": "http://hl7.org/fhir/v3/ParticipationType",
                    "code": "ATND",
                    "display": "attender"
                  }
                ]
              }
            ],
            "period": {
              "start": "2020-01-11T00:06:00-05:00",
              "end": "2020-01-11T00:54:00-05:00"
            },
            "individual": {
              "reference": "Practitioner/Practitioner-2861",
              "display": "Shelly Flynn Jenkins MD"
            }
          }
        ],
        "period": {
          "start": "2020-01-11T00:06:00-05:00",
          "end": "2020-01-11T00:54:00-05:00"
        },
        "location": [
          {
            "location": {
              "reference": "Location/Location-393",
              "display": "Windward General Hospital"
            }
          }
        ],
        "serviceProvider": {
          "display": "Windward General Hospital"
        }
      },
      "request": {
        "method": "PUT",
        "url": "http://localhost:8080/cqf-ruler/R4/Encounter/Encounter-1977"
      }
    },
    {
      "fullUrl": "http://localhost:8080/cqf-ruler/R4/Procedure/Procedure-42771",
      "resource": {
        "resourceType": "Procedure",
        "id": "Procedure-42771",
        "text": {
          "status": "generated",
          "div": "<div xmlns=\"http://www.w3.org/1999/xhtml\">This is a simple example with only plain text</div>"
        },
        "extension": [
          {
            "url": "http://mihin.org/extension/copyright",
            "valueString": "Copyright 2014-2019 Michigan Health Information Network Shared Services. Licensed under the Apache License, Version 2.0 (the 'License'); you may not use this file except in compliance with the License. You may obtain a copy of the License at  http://www.apache.org/licenses/LICENSE-2.0.  Unless required by applicable law or agreed to in writing, software distributed under the License is distributed on an 'AS IS' BASIS, WITHOUT WARRANTIES OR CONDITIONS OF ANY KIND, either express or implied. See the License for the specific language governing permissions and limitations under the License."
          }
        ],
        "identifier": [
          {
            "use": "official",
            "system": "http://mihin.org/fhir/sid/elementId",
            "value": "f11490c4-632f-46e7-b131-b9e665766b8a"
          }
        ],
        "status": "completed",
        "code": {
          "coding": [
            {
              "system": "http://www.ama-assn.org/go/cpt",
              "code": "45334"
            }
          ]
        },
        "subject": {
          "reference": "Patient/Patient-3636",
          "display": "Ryan Frey Warner"
        },
        "encounter": {
          "reference": "Encounter/Encounter-1977",
          "display": "Sigmoidoscopy_Encounter"
        },
        "performedPeriod": {
          "start": "2020-01-11T00:06:00-05:00",
          "end": "2020-01-11T00:54:00-05:00"
        },
        "performer": [
          {
            "actor": {
              "reference": "Practitioner/Practitioner-2861",
              "display": "Shelly Flynn Jenkins MD"
            }
          }
        ],
        "location": {
          "reference": "Location/Location-393",
          "display": "Windward General Hospital"
        }
      },
      "request": {
        "method": "PUT",
        "url": "http://localhost:8080/cqf-ruler/R4/Procedure/Procedure-42771"
      }
    },
    {
      "fullUrl": "http://localhost:8080/cqf-ruler/R4/Observation/Observation-42773",
      "resource": {
        "resourceType": "Observation",
        "id": "Observation-42773",
        "text": {
          "status": "generated",
          "div": "<div xmlns=\"http://www.w3.org/1999/xhtml\">This is a simple example with only plain text</div>"
        },
        "extension": [
          {
            "url": "http://mihin.org/extension/copyright",
            "valueString": "Copyright 2014-2019 Michigan Health Information Network Shared Services. Licensed under the Apache License, Version 2.0 (the 'License'); you may not use this file except in compliance with the License. You may obtain a copy of the License at  http://www.apache.org/licenses/LICENSE-2.0.  Unless required by applicable law or agreed to in writing, software distributed under the License is distributed on an 'AS IS' BASIS, WITHOUT WARRANTIES OR CONDITIONS OF ANY KIND, either express or implied. See the License for the specific language governing permissions and limitations under the License."
          }
        ],
        "identifier": [
          {
            "use": "official",
            "system": "http://mihin.org/fhir/sid/elementId",
            "value": "1e8bf216-f2dd-4f4f-8734-bf03df5db961"
          }
        ],
        "status": "final",
        "category": [
          {
            "coding": [
              {
                "system": "http://hl7.org/fhir/observation-category",
                "code": "exam",
                "display": "Exam"
              }
            ]
          }
        ],
        "code": {
          "coding": [
            {
              "system": "http://www.ama-assn.org/go/cpt",
              "code": "45334",
              "display": "Sigmoidoscopy, flexible; with control of bleeding, any method"
            }
          ]
        },
        "subject": {
          "reference": "Patient/Patient-3636",
          "display": "Ryan Frey Warner"
        },
        "encounter": {
          "reference": "Encounter/Encounter-1977",
          "display": "Sigmoidoscopy_Encounter"
        },
        "effectiveDateTime": "2020-01-11T00:54:00-05:00",
        "performer": [
          {
            "reference": "Practitioner/Practitioner-2861",
            "display": "Shelly Flynn Jenkins MD"
          }
        ],
        "valueString": "POSITIVE"
      },
      "request": {
        "method": "PUT",
        "url": "http://localhost:8080/cqf-ruler/R4/Observation/Observation-42773"
      }
    },
    {
      "fullUrl": "http://localhost:8080/cqf-ruler/R4/DiagnosticReport/DiagnosticReport-42774",
      "resource": {
        "resourceType": "DiagnosticReport",
        "id": "DiagnosticReport-42774",
        "text": {
          "status": "generated",
          "div": "<div xmlns=\"http://www.w3.org/1999/xhtml\">This is a simple example with only plain text</div>"
        },
        "extension": [
          {
            "url": "http://mihin.org/extension/copyright",
            "valueString": "Copyright 2014-2019 Michigan Health Information Network Shared Services. Licensed under the Apache License, Version 2.0 (the 'License'); you may not use this file except in compliance with the License. You may obtain a copy of the License at  http://www.apache.org/licenses/LICENSE-2.0.  Unless required by applicable law or agreed to in writing, software distributed under the License is distributed on an 'AS IS' BASIS, WITHOUT WARRANTIES OR CONDITIONS OF ANY KIND, either express or implied. See the License for the specific language governing permissions and limitations under the License."
          }
        ],
        "identifier": [
          {
            "use": "official",
            "system": "http://mihin.org/fhir/sid/elementId",
            "value": "6edf26eb-6c87-43e2-b521-1f05059788ba"
          }
        ],
        "status": "final",
        "code": {
          "coding": [
            {
              "system": "http://www.ama-assn.org/go/cpt",
              "code": "45349",
              "display": "Sigmoidoscopy, flexible; with endoscopic mucosal resection"
            }
          ]
        },
        "subject": {
          "reference": "Patient/Patient-3636",
          "display": "Ryan Frey Warner"
        },
        "encounter": {
          "reference": "Encounter/Encounter-1977",
          "display": "Sigmoidoscopy_Encounter"
        },
        "effectivePeriod": {
          "start": "2020-01-11T00:54:00-05:00",
          "end": "2020-01-11T00:54:00-05:00"
        },
        "issued": "2020-01-11T00:54:00.000-05:00",
        "performer": [
          {
            "reference": "Practitioner/Practitioner-2861",
            "display": "Shelly Flynn Jenkins MD"
          }
        ],
        "result": [
          {
            "reference": "Observation/Observation-42773",
            "display": "Positive_Sigmoidoscopy_Diagnostic_Report_Observation_1"
          }
        ]
      },
      "request": {
        "method": "PUT",
        "url": "http://localhost:8080/cqf-ruler/R4/DiagnosticReport/DiagnosticReport-42774"
      }
    }
  ]
}