{
  "resourceType": "Bundle",
  "id": "Catherine-Tiffany-Lester-3623-Encounter-3868",
  "type": "transaction",
  "entry": [
    {
      "fullUrl": "http://localhost:8080/cqf-ruler/R4/Encounter/Encounter-3868",
      "resource": {
        "resourceType": "Encounter",
        "id": "Encounter-3868",
        "text": {
          "status": "generated",
          "div": "<div xmlns=\"http://www.w3.org/1999/xhtml\">This is a simple example with only plain text</div>"
        },
        "extension": [
          {
            "url": "http://mihin.org/extension/copyright",
            "valueString": "Copyright 2014-2019 Michigan Health Information Network Shared Services. Licensed under the Apache License, Version 2.0 (the 'License'); you may not use this file except in compliance with the License. You may obtain a copy of the License at  http://www.apache.org/licenses/LICENSE-2.0.  Unless required by applicable law or agreed to in writing, software distributed under the License is distributed on an 'AS IS' BASIS, WITHOUT WARRANTIES OR CONDITIONS OF ANY KIND, either express or implied. See the License for the specific language governing permissions and limitations under the License."
          }
        ],
        "identifier": [
          {
            "use": "official",
            "value": "a5891567-6f09-4bc3-a6f6-dc708378067e"
          }
        ],
        "status": "finished",
        "class": {
          "system": "http://hl7.org/fhir/encounter-class",
          "code": "outpatient",
          "display": "Outpatient"
        },
        "type": [
          {
            "coding": [
              {
                "system": "http://snomed.info/sct",
                "code": "428191000124101",
                "display": "Documentation of current medications"
              }
            ]
          }
        ],
        "subject": {
          "reference": "Patient/Patient-3623",
          "display": "Catherine Tiffany Lester"
        },
        "participant": [
          {
            "type": [
              {
                "coding": [
                  {
                    "system": "http://hl7.org/fhir/v3/ParticipationType",
                    "code": "ATND",
                    "display": "attender"
                  }
                ]
              }
            ],
            "period": {
              "start": "2021-02-25T10:00:00-05:00",
              "end": "2021-02-25T10:20:00-05:00"
            },
            "individual": {
              "reference": "Practitioner/Practitioner-2111",
              "display": "Phillip Ricardo Marks DD"
            }
          }
        ],
        "period": {
          "start": "2021-02-25T10:00:00-05:00",
          "end": "2021-02-25T10:20:00-05:00"
        },
        "location": [
          {
            "location": {
              "reference": "Location/Location-439",
              "display": "Lansing Southside Urgent Care Center"
            }
          }
        ],
        "serviceProvider": {
          "display": "Lansing Southside Urgent Care Center"
        }
      },
      "request": {
        "method": "PUT",
        "url": "http://localhost:8080/cqf-ruler/R4/Encounter/Encounter-3868"
      }
    },
    {
      "fullUrl": "http://localhost:8080/cqf-ruler/R4/Task/Task-81579",
      "resource": {
        "resourceType": "Task",
        "id": "Task-81579",
        "text": {
          "status": "generated",
          "div": "<div xmlns=\"http://www.w3.org/1999/xhtml\">This is a simple example with only plain text</div>"
        },
        "extension": [
          {
            "url": "http://mihin.org/extension/copyright",
            "valueString": "Copyright 2014-2019 Michigan Health Information Network Shared Services. Licensed under the Apache License, Version 2.0 (the 'License'); you may not use this file except in compliance with the License. You may obtain a copy of the License at  http://www.apache.org/licenses/LICENSE-2.0.  Unless required by applicable law or agreed to in writing, software distributed under the License is distributed on an 'AS IS' BASIS, WITHOUT WARRANTIES OR CONDITIONS OF ANY KIND, either express or implied. See the License for the specific language governing permissions and limitations under the License."
          }
        ],
        "status": "accepted",
        "intent": "original-order",
        "code": {
          "coding": [
            {
              "system": "http://snomed.info/sct",
              "code": "430193006",
              "display": "Medication Reconciliation (procedure)"
            }
          ]
        },
        "description": "Care_Plan_Start Task 1",
        "for": {
          "reference": "Patient/Patient-3623",
          "display": "Catherine Tiffany Lester"
        },
        "encounter": {
          "reference": "Encounter/Encounter-3868",
          "display": "Outpatient_Encounter"
        },
        "executionPeriod": {
          "start": "2021-02-24T00:00:00-05:00",
          "end": "2021-02-24T00:00:00-05:00"
        },
        "authoredOn": "2021-02-24T00:00:00-05:00",
        "requester": {
          "reference": "Practitioner/Practitioner-2111",
          "display": "Phillip Ricardo Marks DD"
        }
      },
      "request": {
        "method": "PUT",
        "url": "http://localhost:8080/cqf-ruler/R4/Task/Task-81579"
      }
    },
    {
      "fullUrl": "http://localhost:8080/cqf-ruler/R4/CarePlan/CarePlan-81578",
      "resource": {
        "resourceType": "CarePlan",
        "id": "CarePlan-81578",
        "text": {
          "status": "generated",
          "div": "<div xmlns=\"http://www.w3.org/1999/xhtml\">This is a simple example with only plain text</div>"
        },
        "extension": [
          {
            "url": "http://mihin.org/extension/copyright",
            "valueString": "Copyright 2014-2019 Michigan Health Information Network Shared Services. Licensed under the Apache License, Version 2.0 (the 'License'); you may not use this file except in compliance with the License. You may obtain a copy of the License at  http://www.apache.org/licenses/LICENSE-2.0.  Unless required by applicable law or agreed to in writing, software distributed under the License is distributed on an 'AS IS' BASIS, WITHOUT WARRANTIES OR CONDITIONS OF ANY KIND, either express or implied. See the License for the specific language governing permissions and limitations under the License."
          }
        ],
        "identifier": [
          {
            "use": "official",
            "system": "http://mihin.org/fhir/sid/elementId",
            "value": "9f0aabe2-33e2-4106-8065-1771a460bc16"
          }
        ],
        "status": "active",
        "category": [
          {
            "coding": [
              {
                "system": "http://snomed.info/sct",
                "code": "430193006",
                "display": "Medication Reconciliation (procedure)"
              }
            ]
          }
        ],
        "subject": {
          "reference": "Patient/Patient-3623",
          "display": "Catherine Tiffany Lester"
        },
        "encounter": {
          "reference": "Encounter/Encounter-3868",
          "display": "Outpatient_Encounter"
        },
        "period": {
          "start": "2021-02-25T10:00:00-05:00",
          "end": "2021-02-25T10:00:00-05:00"
        },
        "author": {
          "reference": "Practitioner/Practitioner-2111",
          "display": "Phillip Ricardo Marks DD"
        },
        "activity": [
          {
            "reference": {
              "reference": "Task/Task-81579",
              "display": "Care_Plan_Start Task 1"
            }
          }
        ]
      },
      "request": {
        "method": "PUT",
        "url": "http://localhost:8080/cqf-ruler/R4/CarePlan/CarePlan-81578"
      }
    }
  ]
}