{
  "resourceType": "Bundle",
  "id": "Catherine-Tiffany-Lester-3623-Encounter-1890",
  "type": "transaction",
  "entry": [
    {
      "fullUrl": "http://localhost:8080/cqf-ruler/R4/Encounter/Encounter-1890",
      "resource": {
        "resourceType": "Encounter",
        "id": "Encounter-1890",
        "text": {
          "status": "generated",
          "div": "<div xmlns=\"http://www.w3.org/1999/xhtml\">This is a simple example with only plain text</div>"
        },
        "extension": [
          {
            "url": "http://mihin.org/extension/copyright",
            "valueString": "Copyright 2014-2019 Michigan Health Information Network Shared Services. Licensed under the Apache License, Version 2.0 (the 'License'); you may not use this file except in compliance with the License. You may obtain a copy of the License at  http://www.apache.org/licenses/LICENSE-2.0.  Unless required by applicable law or agreed to in writing, software distributed under the License is distributed on an 'AS IS' BASIS, WITHOUT WARRANTIES OR CONDITIONS OF ANY KIND, either express or implied. See the License for the specific language governing permissions and limitations under the License."
          }
        ],
        "identifier": [
          {
            "use": "official",
            "value": "279a7a29-9a47-4f7e-867d-58d7a09ac925"
          }
        ],
        "status": "finished",
        "class": {
          "system": "http://hl7.org/fhir/encounter-class",
          "code": "ambulatory",
          "display": "Ambulatory"
        },
        "type": [
          {
            "coding": [
              {
                "system": "http://www.ama-assn.org/go/cpt",
                "code": "99214",
                "display": "Combined Office Visits"
              }
            ]
          }
        ],
        "subject": {
          "reference": "Patient/Patient-3623",
          "display": "Catherine Tiffany Lester"
        },
        "participant": [
          {
            "type": [
              {
                "coding": [
                  {
                    "system": "http://hl7.org/fhir/v3/ParticipationType",
                    "code": "ATND",
                    "display": "attender"
                  }
                ]
              }
            ],
            "period": {
              "start": "2020-01-08T00:00:00-05:00",
              "end": "2020-01-08T00:00:00-05:00"
            },
            "individual": {
              "reference": "Practitioner/Practitioner-2863",
              "display": "Henry Moon Frost MD"
            }
          }
        ],
        "period": {
          "start": "2020-01-08T00:00:00-05:00",
          "end": "2020-01-08T00:00:00-05:00"
        },
        "location": [
          {
            "location": {
              "reference": "Location/Location-406",
              "display": "Gift of Mercy Hospital"
            }
          }
        ],
        "serviceProvider": {
          "display": "Gift of Mercy Hospital"
        }
      },
      "request": {
        "method": "PUT",
        "url": "http://localhost:8080/cqf-ruler/R4/Encounter/Encounter-1890"
      }
    },
    {
      "fullUrl": "http://localhost:8080/cqf-ruler/R4/Procedure/Procedure-40892",
      "resource": {
        "resourceType": "Procedure",
        "id": "Procedure-40892",
        "text": {
          "status": "generated",
          "div": "<div xmlns=\"http://www.w3.org/1999/xhtml\">This is a simple example with only plain text</div>"
        },
        "extension": [
          {
            "url": "http://mihin.org/extension/copyright",
            "valueString": "Copyright 2014-2019 Michigan Health Information Network Shared Services. Licensed under the Apache License, Version 2.0 (the 'License'); you may not use this file except in compliance with the License. You may obtain a copy of the License at  http://www.apache.org/licenses/LICENSE-2.0.  Unless required by applicable law or agreed to in writing, software distributed under the License is distributed on an 'AS IS' BASIS, WITHOUT WARRANTIES OR CONDITIONS OF ANY KIND, either express or implied. See the License for the specific language governing permissions and limitations under the License."
          }
        ],
        "identifier": [
          {
            "use": "official",
            "system": "http://mihin.org/fhir/sid/elementId",
            "value": "e1525108-beed-4fac-8ac7-b1009b399bd2"
          }
        ],
        "status": "completed",
        "code": {
          "coding": [
            {
              "system": "http://www.ama-assn.org/go/cpt",
              "code": "77056"
            }
          ]
        },
        "subject": {
          "reference": "Patient/Patient-3623",
          "display": "Catherine Tiffany Lester"
        },
        "encounter": {
          "reference": "Encounter/Encounter-1890",
          "display": "Ambulatory_Encounter"
        },
        "performedPeriod": {
          "start": "2020-01-08T00:00:00-05:00",
          "end": "2020-01-08T00:00:00-05:00"
        },
        "performer": [
          {
            "actor": {
              "reference": "Practitioner/Practitioner-2863",
              "display": "Henry Moon Frost MD"
            }
          }
        ],
        "location": {
          "reference": "Location/Location-406",
          "display": "Gift of Mercy Hospital"
        }
      },
      "request": {
        "method": "PUT",
        "url": "http://localhost:8080/cqf-ruler/R4/Procedure/Procedure-40892"
      }
    },
    {
      "fullUrl": "http://localhost:8080/cqf-ruler/R4/Observation/Observation-40893",
      "resource": {
        "resourceType": "Observation",
        "id": "Observation-40893",
        "text": {
          "status": "generated",
          "div": "<div xmlns=\"http://www.w3.org/1999/xhtml\">This is a simple example with only plain text</div>"
        },
        "extension": [
          {
            "url": "http://mihin.org/extension/copyright",
            "valueString": "Copyright 2014-2019 Michigan Health Information Network Shared Services. Licensed under the Apache License, Version 2.0 (the 'License'); you may not use this file except in compliance with the License. You may obtain a copy of the License at  http://www.apache.org/licenses/LICENSE-2.0.  Unless required by applicable law or agreed to in writing, software distributed under the License is distributed on an 'AS IS' BASIS, WITHOUT WARRANTIES OR CONDITIONS OF ANY KIND, either express or implied. See the License for the specific language governing permissions and limitations under the License."
          }
        ],
        "identifier": [
          {
            "use": "official",
            "system": "http://mihin.org/fhir/sid/elementId",
            "value": "3cc153d1-65af-4551-993c-d7016ba6578d"
          }
        ],
        "status": "final",
        "category": [
          {
            "coding": [
              {
                "system": "http://hl7.org/fhir/observation-category",
                "code": "exam",
                "display": "Exam"
              }
            ]
          }
        ],
        "code": {
          "coding": [
            {
              "system": "http://snomed.info/sct",
              "code": "168749009",
              "display": "Mammography normal (finding)"
            }
          ]
        },
        "subject": {
          "reference": "Patient/Patient-3623",
          "display": "Catherine Tiffany Lester"
        },
        "encounter": {
          "reference": "Encounter/Encounter-1890",
          "display": "Ambulatory_Encounter"
        },
        "effectiveDateTime": "2020-01-08T00:00:00-05:00",
        "performer": [
          {
            "reference": "Practitioner/Practitioner-2863",
            "display": "Henry Moon Frost MD"
          }
        ],
        "valueString": "NEGATIVE"
      },
      "request": {
        "method": "PUT",
        "url": "http://localhost:8080/cqf-ruler/R4/Observation/Observation-40893"
      }
    },
    {
      "fullUrl": "http://localhost:8080/cqf-ruler/R4/Observation/Observation-40894",
      "resource": {
        "resourceType": "Observation",
        "id": "Observation-40894",
        "text": {
          "status": "generated",
          "div": "<div xmlns=\"http://www.w3.org/1999/xhtml\">This is a simple example with only plain text</div>"
        },
        "extension": [
          {
            "url": "http://mihin.org/extension/copyright",
            "valueString": "Copyright 2014-2019 Michigan Health Information Network Shared Services. Licensed under the Apache License, Version 2.0 (the 'License'); you may not use this file except in compliance with the License. You may obtain a copy of the License at  http://www.apache.org/licenses/LICENSE-2.0.  Unless required by applicable law or agreed to in writing, software distributed under the License is distributed on an 'AS IS' BASIS, WITHOUT WARRANTIES OR CONDITIONS OF ANY KIND, either express or implied. See the License for the specific language governing permissions and limitations under the License."
          }
        ],
        "identifier": [
          {
            "use": "official",
            "system": "http://mihin.org/fhir/sid/elementId",
            "value": "58105277-d087-4e28-8b94-0b6629a6c4ed"
          }
        ],
        "status": "final",
        "category": [
          {
            "coding": [
              {
                "system": "http://hl7.org/fhir/observation-category",
                "code": "exam",
                "display": "Exam"
              }
            ]
          }
        ],
        "code": {
          "coding": [
            {
              "system": "http://snomed.info/sct",
              "code": "397145000",
              "display": "Mammography assessment (Category 5) - Highly suggestive of malignancy"
            }
          ]
        },
        "subject": {
          "reference": "Patient/Patient-3623",
          "display": "Catherine Tiffany Lester"
        },
        "encounter": {
          "reference": "Encounter/Encounter-1890",
          "display": "Ambulatory_Encounter"
        },
        "effectiveDateTime": "2020-01-08T00:00:00-05:00",
        "performer": [
          {
            "reference": "Practitioner/Practitioner-2863",
            "display": "Henry Moon Frost MD"
          }
        ],
        "valueString": "POSITIVE"
      },
      "request": {
        "method": "PUT",
        "url": "http://localhost:8080/cqf-ruler/R4/Observation/Observation-40894"
      }
    },
    {
      "fullUrl": "http://localhost:8080/cqf-ruler/R4/DiagnosticReport/DiagnosticReport-40895",
      "resource": {
        "resourceType": "DiagnosticReport",
        "id": "DiagnosticReport-40895",
        "text": {
          "status": "generated",
          "div": "<div xmlns=\"http://www.w3.org/1999/xhtml\">This is a simple example with only plain text</div>"
        },
        "extension": [
          {
            "url": "http://mihin.org/extension/copyright",
            "valueString": "Copyright 2014-2019 Michigan Health Information Network Shared Services. Licensed under the Apache License, Version 2.0 (the 'License'); you may not use this file except in compliance with the License. You may obtain a copy of the License at  http://www.apache.org/licenses/LICENSE-2.0.  Unless required by applicable law or agreed to in writing, software distributed under the License is distributed on an 'AS IS' BASIS, WITHOUT WARRANTIES OR CONDITIONS OF ANY KIND, either express or implied. See the License for the specific language governing permissions and limitations under the License."
          }
        ],
        "identifier": [
          {
            "use": "official",
            "system": "http://mihin.org/fhir/sid/elementId",
            "value": "5e78d37f-b12e-48ca-9c17-55ddb40a1931"
          }
        ],
        "status": "final",
        "code": {
          "coding": [
            {
              "system": "http://loinc.org",
              "code": "46335-6",
              "display": "Breast - bilateral Mammogram Single view"
            }
          ]
        },
        "subject": {
          "reference": "Patient/Patient-3623",
          "display": "Catherine Tiffany Lester"
        },
        "encounter": {
          "reference": "Encounter/Encounter-1890",
          "display": "Ambulatory_Encounter"
        },
        "effectivePeriod": {
          "start": "2020-01-08T00:00:00-05:00",
          "end": "2020-01-08T00:00:00-05:00"
        },
        "issued": "2020-01-08T00:00:00.000-05:00",
        "performer": [
          {
            "reference": "Practitioner/Practitioner-2863",
            "display": "Henry Moon Frost MD"
          }
        ],
        "result": [
          {
            "reference": "Observation/Observation-40894",
            "display": "Breast_Cancer_Report_Observation_1"
          }
        ]
      },
      "request": {
        "method": "PUT",
        "url": "http://localhost:8080/cqf-ruler/R4/DiagnosticReport/DiagnosticReport-40895"
      }
    }
  ]
}