{
  "resourceType": "Bundle",
  "id": "Lois-Guerra-McLaughlin-3589-Encounter-5128",
  "type": "transaction",
  "entry": [
    {
      "fullUrl": "http://localhost:8080/cqf-ruler/R4/Encounter/Encounter-5128",
      "resource": {
        "resourceType": "Encounter",
        "id": "Encounter-5128",
        "text": {
          "status": "generated",
          "div": "<div xmlns=\"http://www.w3.org/1999/xhtml\">This is a simple example with only plain text</div>"
        },
        "extension": [
          {
            "url": "http://mihin.org/extension/copyright",
            "valueString": "Copyright 2014-2019 Michigan Health Information Network Shared Services. Licensed under the Apache License, Version 2.0 (the 'License'); you may not use this file except in compliance with the License. You may obtain a copy of the License at  http://www.apache.org/licenses/LICENSE-2.0.  Unless required by applicable law or agreed to in writing, software distributed under the License is distributed on an 'AS IS' BASIS, WITHOUT WARRANTIES OR CONDITIONS OF ANY KIND, either express or implied. See the License for the specific language governing permissions and limitations under the License."
          }
        ],
        "identifier": [
          {
            "use": "official",
            "value": "32ef6710-5070-4dff-9995-6c5229d5a34f"
          }
        ],
        "status": "finished",
        "class": {
          "system": "http://hl7.org/fhir/encounter-class",
          "code": "outpatient",
          "display": "Outpatient"
        },
        "type": [
          {
            "coding": [
              {
                "system": "http://snomed.info/sct",
                "code": "428191000124101",
                "display": "Documentation of current medications"
              }
            ]
          }
        ],
        "subject": {
          "reference": "Patient/Patient-3589",
          "display": "Lois Guerra McLaughlin"
        },
        "participant": [
          {
            "type": [
              {
                "coding": [
                  {
                    "system": "http://hl7.org/fhir/v3/ParticipationType",
                    "code": "ATND",
                    "display": "attender"
                  }
                ]
              }
            ],
            "period": {
              "start": "2021-11-19T15:20:00-05:00",
              "end": "2021-11-19T15:40:00-05:00"
            },
            "individual": {
              "reference": "Practitioner/Practitioner-2864",
              "display": "Alma Sampson Payne MD"
            }
          }
        ],
        "period": {
          "start": "2021-11-19T15:20:00-05:00",
          "end": "2021-11-19T15:40:00-05:00"
        },
        "location": [
          {
            "location": {
              "reference": "Location/Location-439",
              "display": "Lansing Southside Urgent Care Center"
            }
          }
        ],
        "serviceProvider": {
          "display": "Lansing Southside Urgent Care Center"
        }
      },
      "request": {
        "method": "PUT",
        "url": "http://localhost:8080/cqf-ruler/R4/Encounter/Encounter-5128"
      }
    },
    {
      "fullUrl": "http://localhost:8080/cqf-ruler/R4/Task/Task-107808",
      "resource": {
        "resourceType": "Task",
        "id": "Task-107808",
        "text": {
          "status": "generated",
          "div": "<div xmlns=\"http://www.w3.org/1999/xhtml\">This is a simple example with only plain text</div>"
        },
        "extension": [
          {
            "url": "http://mihin.org/extension/copyright",
            "valueString": "Copyright 2014-2019 Michigan Health Information Network Shared Services. Licensed under the Apache License, Version 2.0 (the 'License'); you may not use this file except in compliance with the License. You may obtain a copy of the License at  http://www.apache.org/licenses/LICENSE-2.0.  Unless required by applicable law or agreed to in writing, software distributed under the License is distributed on an 'AS IS' BASIS, WITHOUT WARRANTIES OR CONDITIONS OF ANY KIND, either express or implied. See the License for the specific language governing permissions and limitations under the License."
          }
        ],
        "status": "accepted",
        "intent": "original-order",
        "code": {
          "coding": [
            {
              "system": "http://snomed.info/sct",
              "code": "430193006",
              "display": "Medication Reconciliation (procedure)"
            }
          ]
        },
        "description": "Care_Plan_Start Task 1",
        "for": {
          "reference": "Patient/Patient-3589",
          "display": "Lois Guerra McLaughlin"
        },
        "encounter": {
          "reference": "Encounter/Encounter-5128",
          "display": "Outpatient_Encounter"
        },
        "executionPeriod": {
          "start": "2021-11-15T00:00:00-05:00",
          "end": "2021-11-15T00:00:00-05:00"
        },
        "authoredOn": "2021-11-15T00:00:00-05:00",
        "requester": {
          "reference": "Practitioner/Practitioner-2864",
          "display": "Alma Sampson Payne MD"
        }
      },
      "request": {
        "method": "PUT",
        "url": "http://localhost:8080/cqf-ruler/R4/Task/Task-107808"
      }
    },
    {
      "fullUrl": "http://localhost:8080/cqf-ruler/R4/CarePlan/CarePlan-107807",
      "resource": {
        "resourceType": "CarePlan",
        "id": "CarePlan-107807",
        "text": {
          "status": "generated",
          "div": "<div xmlns=\"http://www.w3.org/1999/xhtml\">This is a simple example with only plain text</div>"
        },
        "extension": [
          {
            "url": "http://mihin.org/extension/copyright",
            "valueString": "Copyright 2014-2019 Michigan Health Information Network Shared Services. Licensed under the Apache License, Version 2.0 (the 'License'); you may not use this file except in compliance with the License. You may obtain a copy of the License at  http://www.apache.org/licenses/LICENSE-2.0.  Unless required by applicable law or agreed to in writing, software distributed under the License is distributed on an 'AS IS' BASIS, WITHOUT WARRANTIES OR CONDITIONS OF ANY KIND, either express or implied. See the License for the specific language governing permissions and limitations under the License."
          }
        ],
        "identifier": [
          {
            "use": "official",
            "system": "http://mihin.org/fhir/sid/elementId",
            "value": "496cc0a7-3fd7-448b-8c65-c30bc4195fd9"
          }
        ],
        "status": "active",
        "category": [
          {
            "coding": [
              {
                "system": "http://snomed.info/sct",
                "code": "430193006",
                "display": "Medication Reconciliation (procedure)"
              }
            ]
          }
        ],
        "subject": {
          "reference": "Patient/Patient-3589",
          "display": "Lois Guerra McLaughlin"
        },
        "encounter": {
          "reference": "Encounter/Encounter-5128",
          "display": "Outpatient_Encounter"
        },
        "period": {
          "start": "2021-11-19T15:20:00-05:00",
          "end": "2021-11-19T15:20:00-05:00"
        },
        "author": {
          "reference": "Practitioner/Practitioner-2864",
          "display": "Alma Sampson Payne MD"
        },
        "activity": [
          {
            "reference": {
              "reference": "Task/Task-107808",
              "display": "Care_Plan_Start Task 1"
            }
          }
        ]
      },
      "request": {
        "method": "PUT",
        "url": "http://localhost:8080/cqf-ruler/R4/CarePlan/CarePlan-107807"
      }
    }
  ]
}