{
  "resourceType": "Bundle",
  "id": "Carrie-Morgan-Shah-3560-Encounter-3728",
  "type": "transaction",
  "entry": [
    {
      "fullUrl": "http://localhost:8080/cqf-ruler/R4/Encounter/Encounter-3728",
      "resource": {
        "resourceType": "Encounter",
        "id": "Encounter-3728",
        "text": {
          "status": "generated",
          "div": "<div xmlns=\"http://www.w3.org/1999/xhtml\">This is a simple example with only plain text</div>"
        },
        "extension": [
          {
            "url": "http://mihin.org/extension/copyright",
            "valueString": "Copyright 2014-2019 Michigan Health Information Network Shared Services. Licensed under the Apache License, Version 2.0 (the 'License'); you may not use this file except in compliance with the License. You may obtain a copy of the License at  http://www.apache.org/licenses/LICENSE-2.0.  Unless required by applicable law or agreed to in writing, software distributed under the License is distributed on an 'AS IS' BASIS, WITHOUT WARRANTIES OR CONDITIONS OF ANY KIND, either express or implied. See the License for the specific language governing permissions and limitations under the License."
          }
        ],
        "identifier": [
          {
            "use": "official",
            "value": "f9f3e9fa-2f85-4c84-afd6-ddc4d090134e"
          }
        ],
        "status": "finished",
        "class": {
          "system": "http://hl7.org/fhir/encounter-class",
          "code": "ambulatory",
          "display": "Ambulatory"
        },
        "type": [
          {
            "coding": [
              {
                "system": "http://www.ama-assn.org/go/cpt",
                "code": "99345",
                "display": "Combined Office Visits"
              }
            ]
          }
        ],
        "subject": {
          "reference": "Patient/Patient-3560",
          "display": "Carrie Morgan Shah"
        },
        "participant": [
          {
            "type": [
              {
                "coding": [
                  {
                    "system": "http://hl7.org/fhir/v3/ParticipationType",
                    "code": "ATND",
                    "display": "attender"
                  }
                ]
              }
            ],
            "period": {
              "start": "2021-02-04T00:00:00-05:00",
              "end": "2021-02-04T00:00:00-05:00"
            },
            "individual": {
              "reference": "Practitioner/Practitioner-2856",
              "display": "Andrea Carmen Hebert MD"
            }
          }
        ],
        "period": {
          "start": "2021-02-04T00:00:00-05:00",
          "end": "2021-02-04T00:00:00-05:00"
        },
        "location": [
          {
            "location": {
              "reference": "Location/Location-393",
              "display": "Windward General Hospital"
            }
          }
        ],
        "serviceProvider": {
          "display": "Windward General Hospital"
        }
      },
      "request": {
        "method": "PUT",
        "url": "http://localhost:8080/cqf-ruler/R4/Encounter/Encounter-3728"
      }
    },
    {
      "fullUrl": "http://localhost:8080/cqf-ruler/R4/Procedure/Procedure-79740",
      "resource": {
        "resourceType": "Procedure",
        "id": "Procedure-79740",
        "text": {
          "status": "generated",
          "div": "<div xmlns=\"http://www.w3.org/1999/xhtml\">This is a simple example with only plain text</div>"
        },
        "extension": [
          {
            "url": "http://mihin.org/extension/copyright",
            "valueString": "Copyright 2014-2019 Michigan Health Information Network Shared Services. Licensed under the Apache License, Version 2.0 (the 'License'); you may not use this file except in compliance with the License. You may obtain a copy of the License at  http://www.apache.org/licenses/LICENSE-2.0.  Unless required by applicable law or agreed to in writing, software distributed under the License is distributed on an 'AS IS' BASIS, WITHOUT WARRANTIES OR CONDITIONS OF ANY KIND, either express or implied. See the License for the specific language governing permissions and limitations under the License."
          }
        ],
        "identifier": [
          {
            "use": "official",
            "system": "http://mihin.org/fhir/sid/elementId",
            "value": "240c4cb5-6fcc-4bab-9bfe-10f6c5e8a93c"
          }
        ],
        "status": "completed",
        "code": {
          "coding": [
            {
              "system": "http://www.ama-assn.org/go/cpt",
              "code": "77057"
            }
          ]
        },
        "subject": {
          "reference": "Patient/Patient-3560",
          "display": "Carrie Morgan Shah"
        },
        "encounter": {
          "reference": "Encounter/Encounter-3728",
          "display": "Ambulatory_Encounter"
        },
        "performedPeriod": {
          "start": "2021-02-04T00:00:00-05:00",
          "end": "2021-02-04T00:00:00-05:00"
        },
        "performer": [
          {
            "actor": {
              "reference": "Practitioner/Practitioner-2856",
              "display": "Andrea Carmen Hebert MD"
            }
          }
        ],
        "location": {
          "reference": "Location/Location-393",
          "display": "Windward General Hospital"
        }
      },
      "request": {
        "method": "PUT",
        "url": "http://localhost:8080/cqf-ruler/R4/Procedure/Procedure-79740"
      }
    },
    {
      "fullUrl": "http://localhost:8080/cqf-ruler/R4/Condition/Condition-79741",
      "resource": {
        "resourceType": "Condition",
        "id": "Condition-79741",
        "text": {
          "status": "generated",
          "div": "<div xmlns=\"http://www.w3.org/1999/xhtml\">This is a simple example with only plain text</div>"
        },
        "extension": [
          {
            "url": "http://mihin.org/extension/copyright",
            "valueString": "Copyright 2014-2019 Michigan Health Information Network Shared Services. Licensed under the Apache License, Version 2.0 (the 'License'); you may not use this file except in compliance with the License. You may obtain a copy of the License at  http://www.apache.org/licenses/LICENSE-2.0.  Unless required by applicable law or agreed to in writing, software distributed under the License is distributed on an 'AS IS' BASIS, WITHOUT WARRANTIES OR CONDITIONS OF ANY KIND, either express or implied. See the License for the specific language governing permissions and limitations under the License."
          }
        ],
        "identifier": [
          {
            "use": "official",
            "system": "http://mihin.org/fhir/sid/elementId",
            "value": "f95f0887-735d-4805-89ad-6686b0e9aec7"
          }
        ],
        "clinicalStatus": {
          "coding": [
            {
              "system": "http://hl7.org/fhir/ValueSet/condition-clinical",
              "code": "active",
              "display": "Active"
            }
          ]
        },
        "verificationStatus": {
          "coding": [
            {
              "system": "http://hl7.org/fhir/ValueSet/condition-ver-status",
              "code": "confirmed",
              "display": "Confirmed"
            }
          ]
        },
        "category": [
          {
            "coding": [
              {
                "system": "http://hl7.org/fhir/ValueSet/condition-category",
                "code": "encounter-diagnosis",
                "display": "Encounter Diagnosi"
              }
            ]
          }
        ],
        "code": {
          "coding": [
            {
              "system": "http://snomed.info/sct",
              "code": "397145000",
              "display": "Mammography assessment (Category 5) - Highly suggestive of malignancy"
            }
          ]
        },
        "subject": {
          "reference": "Patient/Patient-3560",
          "display": "Carrie Morgan Shah"
        },
        "encounter": {
          "reference": "Encounter/Encounter-3728",
          "display": "Ambulatory_Encounter"
        },
        "onsetDateTime": "2021-02-04T00:00:00-05:00",
        "abatementDateTime": "2021-02-04T00:00:00-05:00",
        "recordedDate": "2021-02-04T00:00:00-05:00",
        "asserter": {
          "reference": "Practitioner/Practitioner-2856",
          "display": "Andrea Carmen Hebert MD"
        }
      },
      "request": {
        "method": "PUT",
        "url": "http://localhost:8080/cqf-ruler/R4/Condition/Condition-79741"
      }
    },
    {
      "fullUrl": "http://localhost:8080/cqf-ruler/R4/Observation/Observation-79742",
      "resource": {
        "resourceType": "Observation",
        "id": "Observation-79742",
        "text": {
          "status": "generated",
          "div": "<div xmlns=\"http://www.w3.org/1999/xhtml\">This is a simple example with only plain text</div>"
        },
        "extension": [
          {
            "url": "http://mihin.org/extension/copyright",
            "valueString": "Copyright 2014-2019 Michigan Health Information Network Shared Services. Licensed under the Apache License, Version 2.0 (the 'License'); you may not use this file except in compliance with the License. You may obtain a copy of the License at  http://www.apache.org/licenses/LICENSE-2.0.  Unless required by applicable law or agreed to in writing, software distributed under the License is distributed on an 'AS IS' BASIS, WITHOUT WARRANTIES OR CONDITIONS OF ANY KIND, either express or implied. See the License for the specific language governing permissions and limitations under the License."
          }
        ],
        "identifier": [
          {
            "use": "official",
            "system": "http://mihin.org/fhir/sid/elementId",
            "value": "4da2db28-63fe-43d4-992f-96b07d314f04"
          }
        ],
        "status": "final",
        "category": [
          {
            "coding": [
              {
                "system": "http://hl7.org/fhir/observation-category",
                "code": "exam",
                "display": "Exam"
              }
            ]
          }
        ],
        "code": {
          "coding": [
            {
              "system": "http://snomed.info/sct",
              "code": "397145000",
              "display": "Mammography assessment (Category 5) - Highly suggestive of malignancy"
            }
          ]
        },
        "subject": {
          "reference": "Patient/Patient-3560",
          "display": "Carrie Morgan Shah"
        },
        "encounter": {
          "reference": "Encounter/Encounter-3728",
          "display": "Ambulatory_Encounter"
        },
        "effectiveDateTime": "2021-02-04T00:00:00-05:00",
        "performer": [
          {
            "reference": "Practitioner/Practitioner-2856",
            "display": "Andrea Carmen Hebert MD"
          }
        ],
        "valueString": "POSITIVE"
      },
      "request": {
        "method": "PUT",
        "url": "http://localhost:8080/cqf-ruler/R4/Observation/Observation-79742"
      }
    },
    {
      "fullUrl": "http://localhost:8080/cqf-ruler/R4/DiagnosticReport/DiagnosticReport-79743",
      "resource": {
        "resourceType": "DiagnosticReport",
        "id": "DiagnosticReport-79743",
        "text": {
          "status": "generated",
          "div": "<div xmlns=\"http://www.w3.org/1999/xhtml\">This is a simple example with only plain text</div>"
        },
        "extension": [
          {
            "url": "http://mihin.org/extension/copyright",
            "valueString": "Copyright 2014-2019 Michigan Health Information Network Shared Services. Licensed under the Apache License, Version 2.0 (the 'License'); you may not use this file except in compliance with the License. You may obtain a copy of the License at  http://www.apache.org/licenses/LICENSE-2.0.  Unless required by applicable law or agreed to in writing, software distributed under the License is distributed on an 'AS IS' BASIS, WITHOUT WARRANTIES OR CONDITIONS OF ANY KIND, either express or implied. See the License for the specific language governing permissions and limitations under the License."
          }
        ],
        "identifier": [
          {
            "use": "official",
            "system": "http://mihin.org/fhir/sid/elementId",
            "value": "8ce4e84a-015b-4d82-9954-32a4a6174320"
          }
        ],
        "status": "final",
        "code": {
          "coding": [
            {
              "system": "http://loinc.org",
              "code": "26287-3",
              "display": "Breast - bilateral Mammogram limited"
            }
          ]
        },
        "subject": {
          "reference": "Patient/Patient-3560",
          "display": "Carrie Morgan Shah"
        },
        "encounter": {
          "reference": "Encounter/Encounter-3728",
          "display": "Ambulatory_Encounter"
        },
        "effectivePeriod": {
          "start": "2021-02-04T00:00:00-05:00",
          "end": "2021-02-04T00:00:00-05:00"
        },
        "issued": "2021-02-04T00:00:00.000-05:00",
        "performer": [
          {
            "reference": "Practitioner/Practitioner-2856",
            "display": "Andrea Carmen Hebert MD"
          }
        ],
        "result": [
          {
            "reference": "Observation/Observation-79742",
            "display": "Breast_Cancer_Report_Observation_1"
          }
        ]
      },
      "request": {
        "method": "PUT",
        "url": "http://localhost:8080/cqf-ruler/R4/DiagnosticReport/DiagnosticReport-79743"
      }
    }
  ]
}