{
  "resourceType": "Bundle",
  "id": "Carmen-Harding-Conrad-3654-Encounter-2021",
  "type": "transaction",
  "entry": [
    {
      "fullUrl": "http://localhost:8080/cqf-ruler/R4/Encounter/Encounter-2021",
      "resource": {
        "resourceType": "Encounter",
        "id": "Encounter-2021",
        "text": {
          "status": "generated",
          "div": "<div xmlns=\"http://www.w3.org/1999/xhtml\">This is a simple example with only plain text</div>"
        },
        "extension": [
          {
            "url": "http://mihin.org/extension/copyright",
            "valueString": "Copyright 2014-2019 Michigan Health Information Network Shared Services. Licensed under the Apache License, Version 2.0 (the 'License'); you may not use this file except in compliance with the License. You may obtain a copy of the License at  http://www.apache.org/licenses/LICENSE-2.0.  Unless required by applicable law or agreed to in writing, software distributed under the License is distributed on an 'AS IS' BASIS, WITHOUT WARRANTIES OR CONDITIONS OF ANY KIND, either express or implied. See the License for the specific language governing permissions and limitations under the License."
          }
        ],
        "identifier": [
          {
            "use": "official",
            "value": "f66b7261-0ef8-4346-a3d6-3885481d35b3"
          }
        ],
        "status": "finished",
        "class": {
          "system": "http://hl7.org/fhir/encounter-class",
          "code": "ambulatory",
          "display": "Ambulatory"
        },
        "type": [
          {
            "coding": [
              {
                "system": "http://snomed.info/sct",
                "code": "185345009",
                "display": "Encounter for symptom"
              }
            ]
          }
        ],
        "subject": {
          "reference": "Patient/Patient-3654",
          "display": "Carmen Harding Conrad"
        },
        "participant": [
          {
            "type": [
              {
                "coding": [
                  {
                    "system": "http://hl7.org/fhir/v3/ParticipationType",
                    "code": "ATND",
                    "display": "attender"
                  }
                ]
              }
            ],
            "period": {
              "start": "2020-01-16T00:06:00-05:00",
              "end": "2020-01-16T00:41:00-05:00"
            },
            "individual": {
              "reference": "Practitioner/Practitioner-2859",
              "display": "Deborah Elliott Benton MD"
            }
          }
        ],
        "period": {
          "start": "2020-01-16T00:06:00-05:00",
          "end": "2020-01-16T00:41:00-05:00"
        },
        "location": [
          {
            "location": {
              "reference": "Location/Location-419",
              "display": "EMS Comprehensive Care"
            }
          }
        ],
        "serviceProvider": {
          "display": "EMS Comprehensive Care"
        }
      },
      "request": {
        "method": "PUT",
        "url": "http://localhost:8080/cqf-ruler/R4/Encounter/Encounter-2021"
      }
    },
    {
      "fullUrl": "http://localhost:8080/cqf-ruler/R4/Procedure/Procedure-43616",
      "resource": {
        "resourceType": "Procedure",
        "id": "Procedure-43616",
        "text": {
          "status": "generated",
          "div": "<div xmlns=\"http://www.w3.org/1999/xhtml\">This is a simple example with only plain text</div>"
        },
        "extension": [
          {
            "url": "http://mihin.org/extension/copyright",
            "valueString": "Copyright 2014-2019 Michigan Health Information Network Shared Services. Licensed under the Apache License, Version 2.0 (the 'License'); you may not use this file except in compliance with the License. You may obtain a copy of the License at  http://www.apache.org/licenses/LICENSE-2.0.  Unless required by applicable law or agreed to in writing, software distributed under the License is distributed on an 'AS IS' BASIS, WITHOUT WARRANTIES OR CONDITIONS OF ANY KIND, either express or implied. See the License for the specific language governing permissions and limitations under the License."
          }
        ],
        "identifier": [
          {
            "use": "official",
            "system": "http://mihin.org/fhir/sid/elementId",
            "value": "89187014-b693-4a43-806c-f9a9833b0ff0"
          }
        ],
        "status": "completed",
        "code": {
          "coding": [
            {
              "system": "http://www.ama-assn.org/go/cpt",
              "code": "44408"
            }
          ]
        },
        "subject": {
          "reference": "Patient/Patient-3654",
          "display": "Carmen Harding Conrad"
        },
        "encounter": {
          "reference": "Encounter/Encounter-2021",
          "display": "Colonoscopy_Encounter"
        },
        "performedPeriod": {
          "start": "2020-01-16T00:06:00-05:00",
          "end": "2020-01-16T00:41:00-05:00"
        },
        "performer": [
          {
            "actor": {
              "reference": "Practitioner/Practitioner-2859",
              "display": "Deborah Elliott Benton MD"
            }
          }
        ],
        "location": {
          "reference": "Location/Location-419",
          "display": "EMS Comprehensive Care"
        }
      },
      "request": {
        "method": "PUT",
        "url": "http://localhost:8080/cqf-ruler/R4/Procedure/Procedure-43616"
      }
    },
    {
      "fullUrl": "http://localhost:8080/cqf-ruler/R4/Observation/Observation-43617",
      "resource": {
        "resourceType": "Observation",
        "id": "Observation-43617",
        "text": {
          "status": "generated",
          "div": "<div xmlns=\"http://www.w3.org/1999/xhtml\">This is a simple example with only plain text</div>"
        },
        "extension": [
          {
            "url": "http://mihin.org/extension/copyright",
            "valueString": "Copyright 2014-2019 Michigan Health Information Network Shared Services. Licensed under the Apache License, Version 2.0 (the 'License'); you may not use this file except in compliance with the License. You may obtain a copy of the License at  http://www.apache.org/licenses/LICENSE-2.0.  Unless required by applicable law or agreed to in writing, software distributed under the License is distributed on an 'AS IS' BASIS, WITHOUT WARRANTIES OR CONDITIONS OF ANY KIND, either express or implied. See the License for the specific language governing permissions and limitations under the License."
          }
        ],
        "identifier": [
          {
            "use": "official",
            "system": "http://mihin.org/fhir/sid/elementId",
            "value": "f01f6a93-f0f6-465d-ad6e-2fe69167d798"
          }
        ],
        "status": "final",
        "category": [
          {
            "coding": [
              {
                "system": "http://hl7.org/fhir/observation-category",
                "code": "exam",
                "display": "Exam"
              }
            ]
          }
        ],
        "code": {
          "coding": [
            {
              "system": "http://snomed.info/sct",
              "code": "709421007",
              "display": "Colonoscopy and dilatation of stricture of colon (procedure)"
            }
          ]
        },
        "subject": {
          "reference": "Patient/Patient-3654",
          "display": "Carmen Harding Conrad"
        },
        "encounter": {
          "reference": "Encounter/Encounter-2021",
          "display": "Colonoscopy_Encounter"
        },
        "effectiveDateTime": "2020-01-16T00:41:00-05:00",
        "performer": [
          {
            "reference": "Practitioner/Practitioner-2859",
            "display": "Deborah Elliott Benton MD"
          }
        ],
        "valueString": "NEGATIVE"
      },
      "request": {
        "method": "PUT",
        "url": "http://localhost:8080/cqf-ruler/R4/Observation/Observation-43617"
      }
    },
    {
      "fullUrl": "http://localhost:8080/cqf-ruler/R4/DiagnosticReport/DiagnosticReport-43618",
      "resource": {
        "resourceType": "DiagnosticReport",
        "id": "DiagnosticReport-43618",
        "text": {
          "status": "generated",
          "div": "<div xmlns=\"http://www.w3.org/1999/xhtml\">This is a simple example with only plain text</div>"
        },
        "extension": [
          {
            "url": "http://mihin.org/extension/copyright",
            "valueString": "Copyright 2014-2019 Michigan Health Information Network Shared Services. Licensed under the Apache License, Version 2.0 (the 'License'); you may not use this file except in compliance with the License. You may obtain a copy of the License at  http://www.apache.org/licenses/LICENSE-2.0.  Unless required by applicable law or agreed to in writing, software distributed under the License is distributed on an 'AS IS' BASIS, WITHOUT WARRANTIES OR CONDITIONS OF ANY KIND, either express or implied. See the License for the specific language governing permissions and limitations under the License."
          }
        ],
        "identifier": [
          {
            "use": "official",
            "system": "http://mihin.org/fhir/sid/elementId",
            "value": "745abc48-2c6b-48ad-91ad-465b25ed1dec"
          }
        ],
        "status": "final",
        "code": {
          "coding": [
            {
              "system": "http://www.ama-assn.org/go/cpt",
              "code": "44383"
            }
          ]
        },
        "subject": {
          "reference": "Patient/Patient-3654",
          "display": "Carmen Harding Conrad"
        },
        "encounter": {
          "reference": "Encounter/Encounter-2021",
          "display": "Colonoscopy_Encounter"
        },
        "effectivePeriod": {
          "start": "2020-01-16T00:41:00-05:00",
          "end": "2020-01-16T00:41:00-05:00"
        },
        "issued": "2020-01-16T00:41:00.000-05:00",
        "performer": [
          {
            "reference": "Practitioner/Practitioner-2859",
            "display": "Deborah Elliott Benton MD"
          }
        ],
        "result": [
          {
            "reference": "Observation/Observation-43617",
            "display": "Negative_Colonoscopy_Diagnostic_Report_Observation_1"
          }
        ]
      },
      "request": {
        "method": "PUT",
        "url": "http://localhost:8080/cqf-ruler/R4/DiagnosticReport/DiagnosticReport-43618"
      }
    }
  ]
}