{
  "resourceType": "Bundle",
  "id": "Carmen-Harding-Conrad-3654-Encounter-3723",
  "type": "transaction",
  "entry": [
    {
      "fullUrl": "http://localhost:8080/cqf-ruler/R4/Encounter/Encounter-3723",
      "resource": {
        "resourceType": "Encounter",
        "id": "Encounter-3723",
        "text": {
          "status": "generated",
          "div": "<div xmlns=\"http://www.w3.org/1999/xhtml\">This is a simple example with only plain text</div>"
        },
        "extension": [
          {
            "url": "http://mihin.org/extension/copyright",
            "valueString": "Copyright 2014-2019 Michigan Health Information Network Shared Services. Licensed under the Apache License, Version 2.0 (the 'License'); you may not use this file except in compliance with the License. You may obtain a copy of the License at  http://www.apache.org/licenses/LICENSE-2.0.  Unless required by applicable law or agreed to in writing, software distributed under the License is distributed on an 'AS IS' BASIS, WITHOUT WARRANTIES OR CONDITIONS OF ANY KIND, either express or implied. See the License for the specific language governing permissions and limitations under the License."
          }
        ],
        "identifier": [
          {
            "use": "official",
            "value": "4bb2d8d4-9d14-4afe-936f-7695eaaa978d"
          }
        ],
        "status": "finished",
        "class": {
          "system": "http://hl7.org/fhir/encounter-class",
          "code": "ambulatory",
          "display": "Ambulatory"
        },
        "type": [
          {
            "coding": [
              {
                "system": "http://snomed.info/sct",
                "code": "185466002",
                "display": "Combined Office Visits"
              }
            ]
          }
        ],
        "subject": {
          "reference": "Patient/Patient-3654",
          "display": "Carmen Harding Conrad"
        },
        "participant": [
          {
            "type": [
              {
                "coding": [
                  {
                    "system": "http://hl7.org/fhir/v3/ParticipationType",
                    "code": "ATND",
                    "display": "attender"
                  }
                ]
              }
            ],
            "period": {
              "start": "2021-02-04T00:00:00-05:00",
              "end": "2021-02-04T00:00:00-05:00"
            },
            "individual": {
              "reference": "Practitioner/Practitioner-2109",
              "display": "Ellen Knapp Schultz MD"
            }
          }
        ],
        "period": {
          "start": "2021-02-04T00:00:00-05:00",
          "end": "2021-02-04T00:00:00-05:00"
        },
        "location": [
          {
            "location": {
              "reference": "Location/Location-419",
              "display": "EMS Comprehensive Care"
            }
          }
        ],
        "serviceProvider": {
          "display": "EMS Comprehensive Care"
        }
      },
      "request": {
        "method": "PUT",
        "url": "http://localhost:8080/cqf-ruler/R4/Encounter/Encounter-3723"
      }
    },
    {
      "fullUrl": "http://localhost:8080/cqf-ruler/R4/Procedure/Procedure-79623",
      "resource": {
        "resourceType": "Procedure",
        "id": "Procedure-79623",
        "text": {
          "status": "generated",
          "div": "<div xmlns=\"http://www.w3.org/1999/xhtml\">This is a simple example with only plain text</div>"
        },
        "extension": [
          {
            "url": "http://mihin.org/extension/copyright",
            "valueString": "Copyright 2014-2019 Michigan Health Information Network Shared Services. Licensed under the Apache License, Version 2.0 (the 'License'); you may not use this file except in compliance with the License. You may obtain a copy of the License at  http://www.apache.org/licenses/LICENSE-2.0.  Unless required by applicable law or agreed to in writing, software distributed under the License is distributed on an 'AS IS' BASIS, WITHOUT WARRANTIES OR CONDITIONS OF ANY KIND, either express or implied. See the License for the specific language governing permissions and limitations under the License."
          }
        ],
        "identifier": [
          {
            "use": "official",
            "system": "http://mihin.org/fhir/sid/elementId",
            "value": "a7a154d9-e2eb-4563-988e-f58caebff5a1"
          }
        ],
        "status": "completed",
        "code": {
          "coding": [
            {
              "system": "http://www.ama-assn.org/go/cpt",
              "code": "87622"
            }
          ]
        },
        "subject": {
          "reference": "Patient/Patient-3654",
          "display": "Carmen Harding Conrad"
        },
        "encounter": {
          "reference": "Encounter/Encounter-3723",
          "display": "Ambulatory_Encounter"
        },
        "performedPeriod": {
          "start": "2021-02-04T00:00:00-05:00",
          "end": "2021-02-04T00:00:00-05:00"
        },
        "performer": [
          {
            "actor": {
              "reference": "Practitioner/Practitioner-2109",
              "display": "Ellen Knapp Schultz MD"
            }
          }
        ],
        "location": {
          "reference": "Location/Location-419",
          "display": "EMS Comprehensive Care"
        }
      },
      "request": {
        "method": "PUT",
        "url": "http://localhost:8080/cqf-ruler/R4/Procedure/Procedure-79623"
      }
    },
    {
      "fullUrl": "http://localhost:8080/cqf-ruler/R4/Condition/Condition-79624",
      "resource": {
        "resourceType": "Condition",
        "id": "Condition-79624",
        "text": {
          "status": "generated",
          "div": "<div xmlns=\"http://www.w3.org/1999/xhtml\">This is a simple example with only plain text</div>"
        },
        "extension": [
          {
            "url": "http://mihin.org/extension/copyright",
            "valueString": "Copyright 2014-2019 Michigan Health Information Network Shared Services. Licensed under the Apache License, Version 2.0 (the 'License'); you may not use this file except in compliance with the License. You may obtain a copy of the License at  http://www.apache.org/licenses/LICENSE-2.0.  Unless required by applicable law or agreed to in writing, software distributed under the License is distributed on an 'AS IS' BASIS, WITHOUT WARRANTIES OR CONDITIONS OF ANY KIND, either express or implied. See the License for the specific language governing permissions and limitations under the License."
          }
        ],
        "identifier": [
          {
            "use": "official",
            "system": "http://mihin.org/fhir/sid/elementId",
            "value": "cb25aeb6-a389-42d1-aa9f-f7acd9753ad4"
          }
        ],
        "clinicalStatus": {
          "coding": [
            {
              "system": "http://hl7.org/fhir/ValueSet/condition-clinical",
              "code": "active",
              "display": "Active"
            }
          ]
        },
        "verificationStatus": {
          "coding": [
            {
              "system": "http://hl7.org/fhir/ValueSet/condition-ver-status",
              "code": "confirmed",
              "display": "Confirmed"
            }
          ]
        },
        "category": [
          {
            "coding": [
              {
                "system": "http://hl7.org/fhir/ValueSet/condition-category",
                "code": "encounter-diagnosis",
                "display": "Encounter Diagnosi"
              }
            ]
          }
        ],
        "code": {
          "coding": [
            {
              "system": "http://snomed.info/sct",
              "code": "68240008",
              "display": "International Federation of Gynecology and Obstetrics cervical cancer stage II (finding) "
            }
          ]
        },
        "subject": {
          "reference": "Patient/Patient-3654",
          "display": "Carmen Harding Conrad"
        },
        "encounter": {
          "reference": "Encounter/Encounter-3723",
          "display": "Ambulatory_Encounter"
        },
        "onsetDateTime": "2021-02-04T00:00:00-05:00",
        "abatementDateTime": "2021-02-04T00:00:00-05:00",
        "recordedDate": "2021-02-04T00:00:00-05:00",
        "asserter": {
          "reference": "Practitioner/Practitioner-2109",
          "display": "Ellen Knapp Schultz MD"
        }
      },
      "request": {
        "method": "PUT",
        "url": "http://localhost:8080/cqf-ruler/R4/Condition/Condition-79624"
      }
    },
    {
      "fullUrl": "http://localhost:8080/cqf-ruler/R4/Observation/Observation-79625",
      "resource": {
        "resourceType": "Observation",
        "id": "Observation-79625",
        "text": {
          "status": "generated",
          "div": "<div xmlns=\"http://www.w3.org/1999/xhtml\">This is a simple example with only plain text</div>"
        },
        "extension": [
          {
            "url": "http://mihin.org/extension/copyright",
            "valueString": "Copyright 2014-2019 Michigan Health Information Network Shared Services. Licensed under the Apache License, Version 2.0 (the 'License'); you may not use this file except in compliance with the License. You may obtain a copy of the License at  http://www.apache.org/licenses/LICENSE-2.0.  Unless required by applicable law or agreed to in writing, software distributed under the License is distributed on an 'AS IS' BASIS, WITHOUT WARRANTIES OR CONDITIONS OF ANY KIND, either express or implied. See the License for the specific language governing permissions and limitations under the License."
          }
        ],
        "identifier": [
          {
            "use": "official",
            "system": "http://mihin.org/fhir/sid/elementId",
            "value": "2b0cfbce-ee82-4221-aba8-4cbba3885b59"
          }
        ],
        "status": "final",
        "category": [
          {
            "coding": [
              {
                "system": "http://hl7.org/fhir/observation-category",
                "code": "exam",
                "display": "Exam"
              }
            ]
          }
        ],
        "code": {
          "coding": [
            {
              "system": "http://snomed.info/sct",
              "code": "439888000",
              "display": "Abnormal cervical Papanicolaou smear (finding)"
            }
          ]
        },
        "subject": {
          "reference": "Patient/Patient-3654",
          "display": "Carmen Harding Conrad"
        },
        "encounter": {
          "reference": "Encounter/Encounter-3723",
          "display": "Ambulatory_Encounter"
        },
        "effectiveDateTime": "2021-02-04T00:00:00-05:00",
        "performer": [
          {
            "reference": "Practitioner/Practitioner-2109",
            "display": "Ellen Knapp Schultz MD"
          }
        ],
        "valueString": "POSITIVE"
      },
      "request": {
        "method": "PUT",
        "url": "http://localhost:8080/cqf-ruler/R4/Observation/Observation-79625"
      }
    },
    {
      "fullUrl": "http://localhost:8080/cqf-ruler/R4/DiagnosticReport/DiagnosticReport-79626",
      "resource": {
        "resourceType": "DiagnosticReport",
        "id": "DiagnosticReport-79626",
        "text": {
          "status": "generated",
          "div": "<div xmlns=\"http://www.w3.org/1999/xhtml\">This is a simple example with only plain text</div>"
        },
        "extension": [
          {
            "url": "http://mihin.org/extension/copyright",
            "valueString": "Copyright 2014-2019 Michigan Health Information Network Shared Services. Licensed under the Apache License, Version 2.0 (the 'License'); you may not use this file except in compliance with the License. You may obtain a copy of the License at  http://www.apache.org/licenses/LICENSE-2.0.  Unless required by applicable law or agreed to in writing, software distributed under the License is distributed on an 'AS IS' BASIS, WITHOUT WARRANTIES OR CONDITIONS OF ANY KIND, either express or implied. See the License for the specific language governing permissions and limitations under the License."
          }
        ],
        "identifier": [
          {
            "use": "official",
            "system": "http://mihin.org/fhir/sid/elementId",
            "value": "5f5b320f-b2b7-4a5a-aaec-a0cadbcd89e5"
          }
        ],
        "status": "final",
        "code": {
          "coding": [
            {
              "system": "http://www.ama-assn.org/go/cpt",
              "code": "88165"
            }
          ]
        },
        "subject": {
          "reference": "Patient/Patient-3654",
          "display": "Carmen Harding Conrad"
        },
        "encounter": {
          "reference": "Encounter/Encounter-3723",
          "display": "Ambulatory_Encounter"
        },
        "effectivePeriod": {
          "start": "2021-02-04T00:00:00-05:00",
          "end": "2021-02-04T00:00:00-05:00"
        },
        "issued": "2021-02-04T00:00:00.000-05:00",
        "performer": [
          {
            "reference": "Practitioner/Practitioner-2109",
            "display": "Ellen Knapp Schultz MD"
          }
        ],
        "result": [
          {
            "reference": "Observation/Observation-79625",
            "display": "Cervical_Cancer_Report_Observation_1"
          }
        ]
      },
      "request": {
        "method": "PUT",
        "url": "http://localhost:8080/cqf-ruler/R4/DiagnosticReport/DiagnosticReport-79626"
      }
    }
  ]
}