{
  "resourceType": "Bundle",
  "id": "Josephine-Huynh-Serrano-3572-Encounter-1937",
  "type": "transaction",
  "entry": [
    {
      "fullUrl": "http://localhost:8080/cqf-ruler/R4/Encounter/Encounter-1937",
      "resource": {
        "resourceType": "Encounter",
        "id": "Encounter-1937",
        "text": {
          "status": "generated",
          "div": "<div xmlns=\"http://www.w3.org/1999/xhtml\">This is a simple example with only plain text</div>"
        },
        "extension": [
          {
            "url": "http://mihin.org/extension/copyright",
            "valueString": "Copyright 2014-2019 Michigan Health Information Network Shared Services. Licensed under the Apache License, Version 2.0 (the 'License'); you may not use this file except in compliance with the License. You may obtain a copy of the License at  http://www.apache.org/licenses/LICENSE-2.0.  Unless required by applicable law or agreed to in writing, software distributed under the License is distributed on an 'AS IS' BASIS, WITHOUT WARRANTIES OR CONDITIONS OF ANY KIND, either express or implied. See the License for the specific language governing permissions and limitations under the License."
          }
        ],
        "identifier": [
          {
            "use": "official",
            "value": "dd62824d-bf21-484c-90b9-589b00d9e4c3"
          }
        ],
        "status": "finished",
        "class": {
          "system": "http://hl7.org/fhir/encounter-class",
          "code": "ambulatory",
          "display": "Ambulatory"
        },
        "type": [
          {
            "coding": [
              {
                "system": "http://www.ama-assn.org/go/cpt",
                "code": "99349",
                "display": "Combined Office Visits"
              }
            ]
          }
        ],
        "subject": {
          "reference": "Patient/Patient-3572",
          "display": "Josephine Huynh Serrano"
        },
        "participant": [
          {
            "type": [
              {
                "coding": [
                  {
                    "system": "http://hl7.org/fhir/v3/ParticipationType",
                    "code": "ATND",
                    "display": "attender"
                  }
                ]
              }
            ],
            "period": {
              "start": "2020-01-08T00:00:00-05:00",
              "end": "2020-01-08T00:00:00-05:00"
            },
            "individual": {
              "reference": "Practitioner/Practitioner-2861",
              "display": "Shelly Flynn Jenkins MD"
            }
          }
        ],
        "period": {
          "start": "2020-01-08T00:00:00-05:00",
          "end": "2020-01-08T00:00:00-05:00"
        },
        "location": [
          {
            "location": {
              "reference": "Location/Location-419",
              "display": "EMS Comprehensive Care"
            }
          }
        ],
        "serviceProvider": {
          "display": "EMS Comprehensive Care"
        }
      },
      "request": {
        "method": "PUT",
        "url": "http://localhost:8080/cqf-ruler/R4/Encounter/Encounter-1937"
      }
    },
    {
      "fullUrl": "http://localhost:8080/cqf-ruler/R4/Procedure/Procedure-41915",
      "resource": {
        "resourceType": "Procedure",
        "id": "Procedure-41915",
        "text": {
          "status": "generated",
          "div": "<div xmlns=\"http://www.w3.org/1999/xhtml\">This is a simple example with only plain text</div>"
        },
        "extension": [
          {
            "url": "http://mihin.org/extension/copyright",
            "valueString": "Copyright 2014-2019 Michigan Health Information Network Shared Services. Licensed under the Apache License, Version 2.0 (the 'License'); you may not use this file except in compliance with the License. You may obtain a copy of the License at  http://www.apache.org/licenses/LICENSE-2.0.  Unless required by applicable law or agreed to in writing, software distributed under the License is distributed on an 'AS IS' BASIS, WITHOUT WARRANTIES OR CONDITIONS OF ANY KIND, either express or implied. See the License for the specific language governing permissions and limitations under the License."
          }
        ],
        "identifier": [
          {
            "use": "official",
            "system": "http://mihin.org/fhir/sid/elementId",
            "value": "03f78440-8507-4639-bba1-050a36eb9a52"
          }
        ],
        "status": "completed",
        "code": {
          "coding": [
            {
              "system": "http://www.ama-assn.org/go/cpt",
              "code": "77057"
            }
          ]
        },
        "subject": {
          "reference": "Patient/Patient-3572",
          "display": "Josephine Huynh Serrano"
        },
        "encounter": {
          "reference": "Encounter/Encounter-1937",
          "display": "Ambulatory_Encounter"
        },
        "performedPeriod": {
          "start": "2020-01-08T00:00:00-05:00",
          "end": "2020-01-08T00:00:00-05:00"
        },
        "performer": [
          {
            "actor": {
              "reference": "Practitioner/Practitioner-2861",
              "display": "Shelly Flynn Jenkins MD"
            }
          }
        ],
        "location": {
          "reference": "Location/Location-419",
          "display": "EMS Comprehensive Care"
        }
      },
      "request": {
        "method": "PUT",
        "url": "http://localhost:8080/cqf-ruler/R4/Procedure/Procedure-41915"
      }
    },
    {
      "fullUrl": "http://localhost:8080/cqf-ruler/R4/Observation/Observation-41916",
      "resource": {
        "resourceType": "Observation",
        "id": "Observation-41916",
        "text": {
          "status": "generated",
          "div": "<div xmlns=\"http://www.w3.org/1999/xhtml\">This is a simple example with only plain text</div>"
        },
        "extension": [
          {
            "url": "http://mihin.org/extension/copyright",
            "valueString": "Copyright 2014-2019 Michigan Health Information Network Shared Services. Licensed under the Apache License, Version 2.0 (the 'License'); you may not use this file except in compliance with the License. You may obtain a copy of the License at  http://www.apache.org/licenses/LICENSE-2.0.  Unless required by applicable law or agreed to in writing, software distributed under the License is distributed on an 'AS IS' BASIS, WITHOUT WARRANTIES OR CONDITIONS OF ANY KIND, either express or implied. See the License for the specific language governing permissions and limitations under the License."
          }
        ],
        "identifier": [
          {
            "use": "official",
            "system": "http://mihin.org/fhir/sid/elementId",
            "value": "f1839aa2-407c-4206-98a0-d29487d009ca"
          }
        ],
        "status": "final",
        "category": [
          {
            "coding": [
              {
                "system": "http://hl7.org/fhir/observation-category",
                "code": "exam",
                "display": "Exam"
              }
            ]
          }
        ],
        "code": {
          "coding": [
            {
              "system": "http://snomed.info/sct",
              "code": "168749009",
              "display": "Mammography normal (finding)"
            }
          ]
        },
        "subject": {
          "reference": "Patient/Patient-3572",
          "display": "Josephine Huynh Serrano"
        },
        "encounter": {
          "reference": "Encounter/Encounter-1937",
          "display": "Ambulatory_Encounter"
        },
        "effectiveDateTime": "2020-01-08T00:00:00-05:00",
        "performer": [
          {
            "reference": "Practitioner/Practitioner-2861",
            "display": "Shelly Flynn Jenkins MD"
          }
        ],
        "valueString": "NEGATIVE"
      },
      "request": {
        "method": "PUT",
        "url": "http://localhost:8080/cqf-ruler/R4/Observation/Observation-41916"
      }
    },
    {
      "fullUrl": "http://localhost:8080/cqf-ruler/R4/Observation/Observation-41917",
      "resource": {
        "resourceType": "Observation",
        "id": "Observation-41917",
        "text": {
          "status": "generated",
          "div": "<div xmlns=\"http://www.w3.org/1999/xhtml\">This is a simple example with only plain text</div>"
        },
        "extension": [
          {
            "url": "http://mihin.org/extension/copyright",
            "valueString": "Copyright 2014-2019 Michigan Health Information Network Shared Services. Licensed under the Apache License, Version 2.0 (the 'License'); you may not use this file except in compliance with the License. You may obtain a copy of the License at  http://www.apache.org/licenses/LICENSE-2.0.  Unless required by applicable law or agreed to in writing, software distributed under the License is distributed on an 'AS IS' BASIS, WITHOUT WARRANTIES OR CONDITIONS OF ANY KIND, either express or implied. See the License for the specific language governing permissions and limitations under the License."
          }
        ],
        "identifier": [
          {
            "use": "official",
            "system": "http://mihin.org/fhir/sid/elementId",
            "value": "8a23a738-a44d-4107-bc51-b8d0a3c826bd"
          }
        ],
        "status": "final",
        "category": [
          {
            "coding": [
              {
                "system": "http://hl7.org/fhir/observation-category",
                "code": "exam",
                "display": "Exam"
              }
            ]
          }
        ],
        "code": {
          "coding": [
            {
              "system": "http://snomed.info/sct",
              "code": "397145000",
              "display": "Mammography assessment (Category 5) - Highly suggestive of malignancy"
            }
          ]
        },
        "subject": {
          "reference": "Patient/Patient-3572",
          "display": "Josephine Huynh Serrano"
        },
        "encounter": {
          "reference": "Encounter/Encounter-1937",
          "display": "Ambulatory_Encounter"
        },
        "effectiveDateTime": "2020-01-08T00:00:00-05:00",
        "performer": [
          {
            "reference": "Practitioner/Practitioner-2861",
            "display": "Shelly Flynn Jenkins MD"
          }
        ],
        "valueString": "POSITIVE"
      },
      "request": {
        "method": "PUT",
        "url": "http://localhost:8080/cqf-ruler/R4/Observation/Observation-41917"
      }
    },
    {
      "fullUrl": "http://localhost:8080/cqf-ruler/R4/DiagnosticReport/DiagnosticReport-41918",
      "resource": {
        "resourceType": "DiagnosticReport",
        "id": "DiagnosticReport-41918",
        "text": {
          "status": "generated",
          "div": "<div xmlns=\"http://www.w3.org/1999/xhtml\">This is a simple example with only plain text</div>"
        },
        "extension": [
          {
            "url": "http://mihin.org/extension/copyright",
            "valueString": "Copyright 2014-2019 Michigan Health Information Network Shared Services. Licensed under the Apache License, Version 2.0 (the 'License'); you may not use this file except in compliance with the License. You may obtain a copy of the License at  http://www.apache.org/licenses/LICENSE-2.0.  Unless required by applicable law or agreed to in writing, software distributed under the License is distributed on an 'AS IS' BASIS, WITHOUT WARRANTIES OR CONDITIONS OF ANY KIND, either express or implied. See the License for the specific language governing permissions and limitations under the License."
          }
        ],
        "identifier": [
          {
            "use": "official",
            "system": "http://mihin.org/fhir/sid/elementId",
            "value": "daa58656-a319-4906-936f-8375c238fb8a"
          }
        ],
        "status": "final",
        "code": {
          "coding": [
            {
              "system": "HCPCS",
              "code": "G0202",
              "display": "Screening mammography, producing direct digital image, bilateral, all views"
            }
          ]
        },
        "subject": {
          "reference": "Patient/Patient-3572",
          "display": "Josephine Huynh Serrano"
        },
        "encounter": {
          "reference": "Encounter/Encounter-1937",
          "display": "Ambulatory_Encounter"
        },
        "effectivePeriod": {
          "start": "2020-01-08T00:00:00-05:00",
          "end": "2020-01-08T00:00:00-05:00"
        },
        "issued": "2020-01-08T00:00:00.000-05:00",
        "performer": [
          {
            "reference": "Practitioner/Practitioner-2861",
            "display": "Shelly Flynn Jenkins MD"
          }
        ],
        "result": [
          {
            "reference": "Observation/Observation-41917",
            "display": "Breast_Cancer_Report_Observation_1"
          }
        ]
      },
      "request": {
        "method": "PUT",
        "url": "http://localhost:8080/cqf-ruler/R4/DiagnosticReport/DiagnosticReport-41918"
      }
    }
  ]
}