{
  "resourceType": "Bundle",
  "id": "Sherri-McLaughlin-Sanders-3612-Encounter-2012",
  "type": "transaction",
  "entry": [
    {
      "fullUrl": "http://localhost:8080/cqf-ruler/R4/Encounter/Encounter-2012",
      "resource": {
        "resourceType": "Encounter",
        "id": "Encounter-2012",
        "text": {
          "status": "generated",
          "div": "<div xmlns=\"http://www.w3.org/1999/xhtml\">This is a simple example with only plain text</div>"
        },
        "extension": [
          {
            "url": "http://mihin.org/extension/copyright",
            "valueString": "Copyright 2014-2019 Michigan Health Information Network Shared Services. Licensed under the Apache License, Version 2.0 (the 'License'); you may not use this file except in compliance with the License. You may obtain a copy of the License at  http://www.apache.org/licenses/LICENSE-2.0.  Unless required by applicable law or agreed to in writing, software distributed under the License is distributed on an 'AS IS' BASIS, WITHOUT WARRANTIES OR CONDITIONS OF ANY KIND, either express or implied. See the License for the specific language governing permissions and limitations under the License."
          }
        ],
        "identifier": [
          {
            "use": "official",
            "value": "48bdfd93-55d6-4def-82df-29d3af250fe2"
          }
        ],
        "status": "finished",
        "class": {
          "system": "http://hl7.org/fhir/encounter-class",
          "code": "ambulatory",
          "display": "Ambulatory"
        },
        "type": [
          {
            "coding": [
              {
                "system": "http://snomed.info/sct",
                "code": "185345009",
                "display": "Encounter for symptom"
              }
            ]
          }
        ],
        "subject": {
          "reference": "Patient/Patient-3612",
          "display": "Sherri McLaughlin Sanders"
        },
        "participant": [
          {
            "type": [
              {
                "coding": [
                  {
                    "system": "http://hl7.org/fhir/v3/ParticipationType",
                    "code": "ATND",
                    "display": "attender"
                  }
                ]
              }
            ],
            "period": {
              "start": "2020-01-13T00:09:00-05:00",
              "end": "2020-01-13T00:57:00-05:00"
            },
            "individual": {
              "reference": "Practitioner/Practitioner-2851",
              "display": "Luis Grant Dorsey MD"
            }
          }
        ],
        "period": {
          "start": "2020-01-13T00:09:00-05:00",
          "end": "2020-01-13T00:57:00-05:00"
        },
        "location": [
          {
            "location": {
              "reference": "Location/Location-419",
              "display": "EMS Comprehensive Care"
            }
          }
        ],
        "serviceProvider": {
          "display": "EMS Comprehensive Care"
        }
      },
      "request": {
        "method": "PUT",
        "url": "http://localhost:8080/cqf-ruler/R4/Encounter/Encounter-2012"
      }
    },
    {
      "fullUrl": "http://localhost:8080/cqf-ruler/R4/Procedure/Procedure-43561",
      "resource": {
        "resourceType": "Procedure",
        "id": "Procedure-43561",
        "text": {
          "status": "generated",
          "div": "<div xmlns=\"http://www.w3.org/1999/xhtml\">This is a simple example with only plain text</div>"
        },
        "extension": [
          {
            "url": "http://mihin.org/extension/copyright",
            "valueString": "Copyright 2014-2019 Michigan Health Information Network Shared Services. Licensed under the Apache License, Version 2.0 (the 'License'); you may not use this file except in compliance with the License. You may obtain a copy of the License at  http://www.apache.org/licenses/LICENSE-2.0.  Unless required by applicable law or agreed to in writing, software distributed under the License is distributed on an 'AS IS' BASIS, WITHOUT WARRANTIES OR CONDITIONS OF ANY KIND, either express or implied. See the License for the specific language governing permissions and limitations under the License."
          }
        ],
        "identifier": [
          {
            "use": "official",
            "system": "http://mihin.org/fhir/sid/elementId",
            "value": "9d24dac3-8561-4523-81b6-ee6c75ac8a1e"
          }
        ],
        "status": "completed",
        "code": {
          "coding": [
            {
              "system": "http://www.ama-assn.org/go/cpt",
              "code": "45335"
            }
          ]
        },
        "subject": {
          "reference": "Patient/Patient-3612",
          "display": "Sherri McLaughlin Sanders"
        },
        "encounter": {
          "reference": "Encounter/Encounter-2012",
          "display": "Sigmoidoscopy_Encounter"
        },
        "performedPeriod": {
          "start": "2020-01-13T00:09:00-05:00",
          "end": "2020-01-13T00:57:00-05:00"
        },
        "performer": [
          {
            "actor": {
              "reference": "Practitioner/Practitioner-2851",
              "display": "Luis Grant Dorsey MD"
            }
          }
        ],
        "location": {
          "reference": "Location/Location-419",
          "display": "EMS Comprehensive Care"
        }
      },
      "request": {
        "method": "PUT",
        "url": "http://localhost:8080/cqf-ruler/R4/Procedure/Procedure-43561"
      }
    },
    {
      "fullUrl": "http://localhost:8080/cqf-ruler/R4/Observation/Observation-43562",
      "resource": {
        "resourceType": "Observation",
        "id": "Observation-43562",
        "text": {
          "status": "generated",
          "div": "<div xmlns=\"http://www.w3.org/1999/xhtml\">This is a simple example with only plain text</div>"
        },
        "extension": [
          {
            "url": "http://mihin.org/extension/copyright",
            "valueString": "Copyright 2014-2019 Michigan Health Information Network Shared Services. Licensed under the Apache License, Version 2.0 (the 'License'); you may not use this file except in compliance with the License. You may obtain a copy of the License at  http://www.apache.org/licenses/LICENSE-2.0.  Unless required by applicable law or agreed to in writing, software distributed under the License is distributed on an 'AS IS' BASIS, WITHOUT WARRANTIES OR CONDITIONS OF ANY KIND, either express or implied. See the License for the specific language governing permissions and limitations under the License."
          }
        ],
        "identifier": [
          {
            "use": "official",
            "system": "http://mihin.org/fhir/sid/elementId",
            "value": "652d7c0b-35f4-4a74-aecf-c168d2e4106e"
          }
        ],
        "status": "final",
        "category": [
          {
            "coding": [
              {
                "system": "http://hl7.org/fhir/observation-category",
                "code": "exam",
                "display": "Exam"
              }
            ]
          }
        ],
        "code": {
          "coding": [
            {
              "system": "http://www.ama-assn.org/go/cpt",
              "code": "45332",
              "display": "Sigmoidoscopy, flexible; with removal of foreign body(s)"
            }
          ]
        },
        "subject": {
          "reference": "Patient/Patient-3612",
          "display": "Sherri McLaughlin Sanders"
        },
        "encounter": {
          "reference": "Encounter/Encounter-2012",
          "display": "Sigmoidoscopy_Encounter"
        },
        "effectiveDateTime": "2020-01-13T00:57:00-05:00",
        "performer": [
          {
            "reference": "Practitioner/Practitioner-2851",
            "display": "Luis Grant Dorsey MD"
          }
        ],
        "valueString": "NEGATIVE"
      },
      "request": {
        "method": "PUT",
        "url": "http://localhost:8080/cqf-ruler/R4/Observation/Observation-43562"
      }
    },
    {
      "fullUrl": "http://localhost:8080/cqf-ruler/R4/DiagnosticReport/DiagnosticReport-43563",
      "resource": {
        "resourceType": "DiagnosticReport",
        "id": "DiagnosticReport-43563",
        "text": {
          "status": "generated",
          "div": "<div xmlns=\"http://www.w3.org/1999/xhtml\">This is a simple example with only plain text</div>"
        },
        "extension": [
          {
            "url": "http://mihin.org/extension/copyright",
            "valueString": "Copyright 2014-2019 Michigan Health Information Network Shared Services. Licensed under the Apache License, Version 2.0 (the 'License'); you may not use this file except in compliance with the License. You may obtain a copy of the License at  http://www.apache.org/licenses/LICENSE-2.0.  Unless required by applicable law or agreed to in writing, software distributed under the License is distributed on an 'AS IS' BASIS, WITHOUT WARRANTIES OR CONDITIONS OF ANY KIND, either express or implied. See the License for the specific language governing permissions and limitations under the License."
          }
        ],
        "identifier": [
          {
            "use": "official",
            "system": "http://mihin.org/fhir/sid/elementId",
            "value": "0729a8d5-ce88-41bf-a7ce-de8ecda5780e"
          }
        ],
        "status": "final",
        "code": {
          "coding": [
            {
              "system": "http://www.ama-assn.org/go/cpt",
              "code": "45349",
              "display": "Sigmoidoscopy, flexible; with endoscopic mucosal resection"
            }
          ]
        },
        "subject": {
          "reference": "Patient/Patient-3612",
          "display": "Sherri McLaughlin Sanders"
        },
        "encounter": {
          "reference": "Encounter/Encounter-2012",
          "display": "Sigmoidoscopy_Encounter"
        },
        "effectivePeriod": {
          "start": "2020-01-13T00:57:00-05:00",
          "end": "2020-01-13T00:57:00-05:00"
        },
        "issued": "2020-01-13T00:57:00.000-05:00",
        "performer": [
          {
            "reference": "Practitioner/Practitioner-2851",
            "display": "Luis Grant Dorsey MD"
          }
        ],
        "result": [
          {
            "reference": "Observation/Observation-43562",
            "display": "Negative_Sigmoidoscopy_Diagnostic_Report_Observation_1"
          }
        ]
      },
      "request": {
        "method": "PUT",
        "url": "http://localhost:8080/cqf-ruler/R4/DiagnosticReport/DiagnosticReport-43563"
      }
    }
  ]
}